
time,ax,ay,az,wx,wy,wz,
0.002,-0.51,0.50,-0.66,-0.17,-1.13,-1.00,
0.03,-0.51,0.50,-0.66,-0.17,-1.13,-1.00,
0.031,-0.25,0.63,-0.33,-0.17,-1.13,-1.00,
0.031,-0.25,0.63,-0.33,-0.17,-1.13,-1.00,
0.031,-0.25,0.63,-0.33,-0.16,-1.13,-1.00,
0.031,-0.25,0.63,-0.33,-0.15,-1.13,-1.00,
0.031,-0.25,0.63,-0.33,-0.14,-1.13,-1.00,
0.032,-0.25,0.63,-0.33,-0.14,-1.13,-1.00,
0.032,-0.08,0.76,-0.07,-0.14,-1.13,-1.00,
0.032,-0.08,0.76,-0.07,-0.13,-1.13,-1.00,
0.032,-0.08,0.76,-0.07,-0.13,-1.13,-1.01,
0.032,-0.08,0.76,-0.07,-0.12,-1.12,-1.01,
0.032,-0.08,0.76,-0.07,-0.12,-1.12,-1.01,
0.033,-0.08,0.76,-0.07,-0.12,-1.12,-1.01,
0.033,-0.05,0.88,-0.02,-0.12,-1.12,-1.01,
0.033,-0.05,0.88,-0.02,-0.12,-1.12,-1.01,
0.033,-0.05,0.88,-0.02,-0.11,-1.11,-1.01,
0.033,-0.05,0.88,-0.02,-0.11,-1.11,-1.01,
0.034,-0.05,0.88,-0.02,-0.12,-1.10,-1.01,
0.034,-0.05,0.88,-0.02,-0.12,-1.10,-1.01,
0.034,-0.03,0.92,-0.05,-0.12,-1.10,-1.01,
0.034,-0.03,0.92,-0.05,-0.12,-1.09,-1.01,
0.034,-0.03,0.92,-0.05,-0.12,-1.08,-1.01,
0.035,-0.03,0.92,-0.05,-0.12,-1.08,-1.01,
0.035,-0.03,0.92,-0.05,-0.12,-1.08,-1.01,
0.046,-0.03,0.92,-0.05,-0.13,-1.07,-1.01,
0.047,-0.04,0.94,-0.19,-0.13,-1.07,-1.01,
0.047,-0.04,0.94,-0.19,-0.13,-1.07,-1.01,
0.047,-0.04,0.94,-0.19,-0.14,-1.07,-1.01,
0.047,-0.04,0.94,-0.19,-0.15,-1.07,-1.01,
0.047,-0.04,0.94,-0.19,-0.16,-1.08,-1.01,
0.048,-0.04,0.94,-0.19,-0.17,-1.08,-1.01,
0.061,-0.08,0.87,-0.42,-0.17,-1.08,-1.01,
0.062,-0.08,0.87,-0.42,-0.18,-1.09,-1.01,
0.062,-0.08,0.87,-0.42,-0.19,-1.10,-1.01,
0.062,-0.08,0.87,-0.42,-0.21,-1.11,-1.02,
0.062,-0.08,0.87,-0.42,-0.22,-1.12,-1.01,
0.063,-0.08,0.87,-0.42,-0.24,-1.13,-1.01,
0.063,-0.19,0.85,-0.72,-0.24,-1.13,-1.01,
0.063,-0.19,0.85,-0.72,-0.26,-1.14,-1.01,
0.063,-0.19,0.85,-0.72,-0.28,-1.16,-1.01,
0.063,-0.19,0.85,-0.72,-0.30,-1.17,-1.01,
0.065,-0.19,0.85,-0.72,-0.32,-1.18,-1.00,
0.067,-0.19,0.85,-0.72,-0.34,-1.19,-0.99,
0.075,-0.39,0.83,-0.88,-0.34,-1.19,-0.99,
0.075,-0.39,0.83,-0.88,-0.37,-1.19,-0.99,
0.075,-0.39,0.83,-0.88,-0.39,-1.18,-0.98,
0.076,-0.39,0.83,-0.88,-0.41,-1.18,-0.97,
0.076,-0.39,0.83,-0.88,-0.43,-1.16,-0.96,
0.077,-0.39,0.83,-0.88,-0.45,-1.14,-0.95,
0.08,-0.29,0.82,-0.58,-0.45,-1.14,-0.95,
0.081,-0.29,0.82,-0.58,-0.47,-1.11,-0.93,
0.082,-0.29,0.82,-0.58,-0.48,-1.08,-0.92,
0.083,-0.29,0.82,-0.58,-0.50,-1.05,-0.91,
0.085,-0.29,0.82,-0.58,-0.50,-1.01,-0.90,
0.103,-0.29,0.82,-0.58,-0.51,-0.98,-0.88,
0.104,-0.16,0.55,0.01,-0.51,-0.98,-0.88,
0.104,-0.16,0.55,0.01,-0.52,-0.95,-0.88,
0.104,-0.16,0.55,0.01,-0.52,-0.93,-0.87,
0.105,-0.16,0.55,0.01,-0.51,-0.90,-0.87,
0.105,-0.16,0.55,0.01,-0.50,-0.87,-0.86,
0.105,-0.16,0.55,0.01,-0.49,-0.83,-0.87,
0.105,-0.02,0.50,0.63,-0.49,-0.83,-0.87,
0.106,-0.02,0.50,0.63,-0.47,-0.78,-0.87,
0.106,-0.02,0.50,0.63,-0.45,-0.74,-0.88,
0.106,-0.02,0.50,0.63,-0.43,-0.69,-0.88,
0.107,-0.02,0.50,0.63,-0.40,-0.65,-0.89,
0.107,-0.02,0.50,0.63,-0.36,-0.62,-0.89,
0.124,0.01,0.72,1.29,-0.36,-0.62,-0.89,
0.124,0.01,0.72,1.29,-0.33,-0.58,-0.90,
0.125,0.01,0.72,1.29,-0.29,-0.55,-0.90,
0.125,0.01,0.72,1.29,-0.25,-0.53,-0.91,
0.126,0.01,0.72,1.29,-0.21,-0.51,-0.92,
0.126,0.01,0.72,1.29,-0.17,-0.50,-0.92,
0.126,0.02,0.76,1.67,-0.17,-0.50,-0.92,
0.127,0.02,0.76,1.67,-0.13,-0.49,-0.93,
0.127,0.02,0.76,1.67,-0.08,-0.48,-0.94,
0.128,0.02,0.76,1.67,-0.04,-0.48,-0.95,
0.128,0.02,0.76,1.67,0.00,-0.49,-0.96,
0.129,0.02,0.76,1.67,0.04,-0.49,-0.97,
0.14,0.02,0.68,1.63,0.04,-0.49,-0.97,
0.141,0.02,0.68,1.63,0.08,-0.51,-0.98,
0.141,0.02,0.68,1.63,0.12,-0.52,-0.99,
0.142,0.02,0.68,1.63,0.16,-0.54,-1.00,
0.142,0.02,0.68,1.63,0.19,-0.56,-1.00,
0.142,0.02,0.68,1.63,0.22,-0.58,-1.01,
0.143,-0.08,0.62,1.19,0.22,-0.58,-1.01,
0.143,-0.08,0.62,1.19,0.25,-0.60,-1.02,
0.144,-0.08,0.62,1.19,0.27,-0.62,-1.03,
0.144,-0.08,0.62,1.19,0.29,-0.65,-1.03,
0.147,-0.08,0.62,1.19,0.31,-0.68,-1.04,
0.147,-0.08,0.62,1.19,0.32,-0.72,-1.04,
0.149,-0.27,0.60,0.38,0.32,-0.72,-1.04,
0.15,-0.27,0.60,0.38,0.33,-0.76,-1.05,
0.151,-0.27,0.60,0.38,0.33,-0.81,-1.05,
0.154,-0.27,0.60,0.38,0.33,-0.86,-1.05,
0.156,-0.27,0.60,0.38,0.32,-0.92,-1.04,
0.157,-0.27,0.60,0.38,0.31,-0.98,-1.04,
0.16,-0.47,0.60,-0.64,0.31,-0.98,-1.04,
0.16,-0.47,0.60,-0.64,0.29,-1.04,-1.03,
0.161,-0.47,0.60,-0.64,0.26,-1.09,-1.03,
0.163,-0.47,0.60,-0.64,0.24,-1.15,-1.02,
0.165,-0.47,0.60,-0.64,0.20,-1.19,-1.00,
0.167,-0.47,0.60,-0.64,0.16,-1.24,-0.99,
0.183,-0.78,0.56,-1.60,0.16,-1.24,-0.99,
0.183,-0.78,0.56,-1.60,0.11,-1.27,-0.97,
0.183,-0.78,0.56,-1.60,0.07,-1.31,-0.95,
0.184,-0.78,0.56,-1.60,0.02,-1.35,-0.93,
0.184,-0.78,0.56,-1.60,-0.03,-1.38,-0.91,
0.184,-0.78,0.56,-1.60,-0.08,-1.40,-0.88,
0.184,-1.00,0.62,-2.08,-0.08,-1.40,-0.88,
0.185,-1.00,0.62,-2.08,-0.13,-1.42,-0.86,
0.185,-1.00,0.62,-2.08,-0.19,-1.43,-0.83,
0.185,-1.00,0.62,-2.08,-0.24,-1.43,-0.80,
0.185,-1.00,0.62,-2.08,-0.30,-1.43,-0.77,
0.188,-1.00,0.62,-2.08,-0.36,-1.42,-0.75,
0.19,-1.03,0.56,-2.02,-0.36,-1.42,-0.75,
0.19,-1.03,0.56,-2.02,-0.42,-1.41,-0.72,
0.193,-1.03,0.56,-2.02,-0.47,-1.39,-0.69,
0.193,-1.03,0.56,-2.02,-0.52,-1.37,-0.66,
0.195,-1.03,0.56,-2.02,-0.56,-1.34,-0.64,
0.197,-1.03,0.56,-2.02,-0.61,-1.31,-0.61,
0.203,-0.93,0.60,-1.22,-0.61,-1.31,-0.61,
0.203,-0.93,0.60,-1.22,-0.64,-1.28,-0.59,
0.204,-0.93,0.60,-1.22,-0.67,-1.24,-0.56,
0.204,-0.93,0.60,-1.22,-0.70,-1.21,-0.54,
0.218,-0.93,0.60,-1.22,-0.73,-1.17,-0.52,
0.218,-0.93,0.60,-1.22,-0.75,-1.14,-0.51,
0.219,-0.68,0.47,-0.35,-0.75,-1.14,-0.51,
0.219,-0.68,0.47,-0.35,-0.77,-1.12,-0.50,
0.219,-0.68,0.47,-0.35,-0.79,-1.09,-0.49,
0.219,-0.68,0.47,-0.35,-0.80,-1.07,-0.48,
0.219,-0.68,0.47,-0.35,-0.82,-1.05,-0.48,
0.22,-0.68,0.47,-0.35,-0.83,-1.03,-0.48,
0.22,-0.26,0.31,0.16,-0.83,-1.03,-0.48,
0.22,-0.26,0.31,0.16,-0.84,-1.02,-0.48,
0.223,-0.26,0.31,0.16,-0.85,-1.00,-0.49,
0.223,-0.26,0.31,0.16,-0.85,-0.99,-0.49,
0.226,-0.26,0.31,0.16,-0.85,-0.98,-0.50,
0.227,-0.26,0.31,0.16,-0.84,-0.97,-0.52,
0.229,0.35,0.30,0.61,-0.84,-0.97,-0.52,
0.229,0.35,0.30,0.61,-0.84,-0.98,-0.54,
0.231,0.35,0.30,0.61,-0.83,-1.00,-0.56,
0.233,0.35,0.30,0.61,-0.82,-1.02,-0.58,
0.236,0.35,0.30,0.61,-0.81,-1.06,-0.60,
0.238,0.35,0.30,0.61,-0.80,-1.11,-0.63,
0.239,0.94,0.32,0.89,-0.80,-1.11,-0.63,
0.24,0.94,0.32,0.89,-0.79,-1.16,-0.67,
0.241,0.94,0.32,0.89,-0.78,-1.22,-0.70,
0.243,0.94,0.32,0.89,-0.77,-1.28,-0.74,
0.245,0.94,0.32,0.89,-0.77,-1.35,-0.78,
0.247,0.94,0.32,0.89,-0.76,-1.40,-0.82,
0.25,1.34,0.34,0.97,-0.76,-1.40,-0.82,
0.25,1.34,0.34,0.97,-0.76,-1.46,-0.86,
0.252,1.34,0.34,0.97,-0.75,-1.53,-0.91,
0.254,1.34,0.34,0.97,-0.75,-1.55,-0.93,
0.255,1.34,0.34,0.97,-0.75,-1.58,-0.97,
0.258,1.34,0.34,0.97,-0.75,-1.61,-1.00,
0.259,1.55,0.33,1.09,-0.75,-1.61,-1.00,
0.259,1.55,0.33,1.09,-0.76,-1.64,-1.04,
0.261,1.55,0.33,1.09,-0.77,-1.67,-1.07,
0.263,1.55,0.33,1.09,-0.78,-1.70,-1.10,
0.265,1.55,0.33,1.09,-0.78,-1.72,-1.12,
0.267,1.55,0.33,1.09,-0.79,-1.73,-1.14,
0.285,1.36,0.12,1.33,-0.79,-1.73,-1.14,
0.286,1.36,0.12,1.33,-0.80,-1.74,-1.16,
0.286,1.36,0.12,1.33,-0.80,-1.74,-1.18,
0.286,1.36,0.12,1.33,-0.80,-1.72,-1.19,
0.304,1.36,0.12,1.33,-0.81,-1.71,-1.21,
0.305,1.36,0.12,1.33,-0.81,-1.68,-1.22,
0.305,1.05,-0.20,1.69,-0.81,-1.68,-1.22,
0.305,1.05,-0.20,1.69,-0.81,-1.66,-1.23,
0.306,1.05,-0.20,1.69,-0.81,-1.62,-1.23,
0.306,1.05,-0.20,1.69,-0.81,-1.59,-1.24,
0.306,1.05,-0.20,1.69,-0.82,-1.56,-1.24,
0.306,1.05,-0.20,1.69,-0.82,-1.53,-1.24,
0.306,0.68,-0.54,1.99,-0.82,-1.53,-1.24,
0.307,0.68,-0.54,1.99,-0.81,-1.49,-1.24,
0.307,0.68,-0.54,1.99,-0.81,-1.45,-1.24,
0.307,0.68,-0.54,1.99,-0.81,-1.41,-1.23,
0.307,0.68,-0.54,1.99,-0.81,-1.38,-1.23,
0.307,0.68,-0.54,1.99,-0.82,-1.34,-1.22,
0.308,0.47,-0.85,2.00,-0.82,-1.34,-1.22,
0.308,0.47,-0.85,2.00,-0.81,-1.31,-1.22,
0.308,0.47,-0.85,2.00,-0.81,-1.28,-1.21,
0.308,0.47,-0.85,2.00,-0.81,-1.26,-1.20,
0.309,0.47,-0.85,2.00,-0.81,-1.24,-1.20,
0.309,0.47,-0.85,2.00,-0.80,-1.22,-1.19,
0.34,0.39,-1.04,1.92,-0.80,-1.22,-1.19,
0.34,0.39,-1.04,1.92,-0.79,-1.21,-1.18,
0.34,0.39,-1.04,1.92,-0.79,-1.20,-1.18,
0.34,0.39,-1.04,1.92,-0.78,-1.20,-1.17,
0.341,0.39,-1.04,1.92,-0.78,-1.20,-1.17,
0.341,0.39,-1.04,1.92,-0.77,-1.19,-1.16,
0.341,0.48,-1.10,1.65,-0.77,-1.19,-1.16,
0.341,0.48,-1.10,1.65,-0.76,-1.19,-1.16,
0.341,0.48,-1.10,1.65,-0.75,-1.20,-1.16,
0.342,0.48,-1.10,1.65,-0.75,-1.20,-1.17,
0.342,0.48,-1.10,1.65,-0.74,-1.21,-1.18,
0.342,0.48,-1.10,1.65,-0.73,-1.21,-1.18,
0.342,0.68,-1.12,1.24,-0.73,-1.21,-1.18,
0.342,0.68,-1.12,1.24,-0.71,-1.19,-1.20,
0.342,0.68,-1.12,1.24,-0.69,-1.17,-1.21,
0.343,0.68,-1.12,1.24,-0.66,-1.15,-1.23,
0.343,0.68,-1.12,1.24,-0.64,-1.11,-1.24,
0.343,0.68,-1.12,1.24,-0.61,-1.08,-1.26,
0.343,0.66,-1.09,1.03,-0.61,-1.08,-1.26,
0.343,0.66,-1.09,1.03,-0.58,-1.05,-1.28,
0.344,0.66,-1.09,1.03,-0.55,-1.02,-1.30,
0.344,0.66,-1.09,1.03,-0.52,-0.99,-1.31,
0.348,0.66,-1.09,1.03,-0.49,-0.96,-1.32,
0.348,0.66,-1.09,1.03,-0.46,-0.93,-1.33,
0.349,0.22,-0.86,0.85,-0.46,-0.93,-1.33,
0.35,0.22,-0.86,0.85,-0.42,-0.90,-1.34,
0.373,0.22,-0.86,0.85,-0.39,-0.88,-1.35,
0.373,0.22,-0.86,0.85,-0.36,-0.85,-1.35,
0.374,0.22,-0.86,0.85,-0.33,-0.83,-1.35,
0.374,0.22,-0.86,0.85,-0.30,-0.81,-1.34,
0.374,-0.45,-0.55,0.63,-0.30,-0.81,-1.34,
0.375,-0.45,-0.55,0.63,-0.27,-0.79,-1.33,
0.375,-0.45,-0.55,0.63,-0.24,-0.78,-1.31,
0.375,-0.45,-0.55,0.63,-0.22,-0.77,-1.29,
0.375,-0.45,-0.55,0.63,-0.20,-0.77,-1.27,
0.375,-0.45,-0.55,0.63,-0.19,-0.78,-1.24,
0.375,-0.81,-0.40,0.19,-0.19,-0.78,-1.24,
0.375,-0.81,-0.40,0.19,-0.17,-0.79,-1.21,
0.376,-0.81,-0.40,0.19,-0.17,-0.80,-1.17,
0.376,-0.81,-0.40,0.19,-0.16,-0.81,-1.13,
0.376,-0.81,-0.40,0.19,-0.17,-0.81,-1.09,
0.389,-0.81,-0.40,0.19,-0.17,-0.82,-1.05,
0.39,-0.98,-0.55,-0.34,-0.17,-0.82,-1.05,
0.39,-0.98,-0.55,-0.34,-0.18,-0.82,-1.01,
0.39,-0.98,-0.55,-0.34,-0.19,-0.82,-0.97,
0.39,-0.98,-0.55,-0.34,-0.21,-0.82,-0.93,
0.39,-0.98,-0.55,-0.34,-0.23,-0.82,-0.90,
0.39,-0.98,-0.55,-0.34,-0.25,-0.82,-0.86,
0.39,-0.76,-0.74,-0.66,-0.25,-0.82,-0.86,
0.391,-0.76,-0.74,-0.66,-0.27,-0.83,-0.83,
0.391,-0.76,-0.74,-0.66,-0.29,-0.83,-0.81,
0.401,-0.76,-0.74,-0.66,-0.32,-0.84,-0.78,
0.401,-0.76,-0.74,-0.66,-0.34,-0.86,-0.76,
0.401,-0.76,-0.74,-0.66,-0.37,-0.87,-0.74,
0.401,-0.34,-0.75,-0.66,-0.37,-0.87,-0.74,
0.402,-0.34,-0.75,-0.66,-0.39,-0.88,-0.73,
0.402,-0.34,-0.75,-0.66,-0.42,-0.91,-0.72,
0.406,-0.34,-0.75,-0.66,-0.44,-0.94,-0.71,
0.407,-0.34,-0.75,-0.66,-0.46,-0.97,-0.70,
0.407,-0.34,-0.75,-0.66,-0.48,-1.01,-0.69,
0.41,0.09,-0.61,-0.42,-0.48,-1.01,-0.69,
0.41,0.09,-0.61,-0.42,-0.50,-1.06,-0.69,
0.411,0.09,-0.61,-0.42,-0.52,-1.10,-0.68,
0.414,0.09,-0.61,-0.42,-0.54,-1.14,-0.68,
0.415,0.09,-0.61,-0.42,-0.56,-1.17,-0.68,
0.431,0.09,-0.61,-0.42,-0.57,-1.20,-0.67,
0.432,0.52,-0.43,-0.08,-0.57,-1.20,-0.67,
0.432,0.52,-0.43,-0.08,-0.59,-1.23,-0.67,
0.432,0.52,-0.43,-0.08,-0.60,-1.25,-0.67,
0.432,0.52,-0.43,-0.08,-0.61,-1.27,-0.67,
0.432,0.52,-0.43,-0.08,-0.62,-1.27,-0.67,
0.433,0.52,-0.43,-0.08,-0.63,-1.26,-0.67,
0.433,0.94,-0.34,0.22,-0.63,-1.26,-0.67,
0.433,0.94,-0.34,0.22,-0.63,-1.25,-0.68,
0.433,0.94,-0.34,0.22,-0.64,-1.24,-0.68,
0.433,0.94,-0.34,0.22,-0.64,-1.22,-0.68,
0.436,0.94,-0.34,0.22,-0.64,-1.19,-0.69,
0.437,0.94,-0.34,0.22,-0.63,-1.17,-0.69,
0.439,1.20,-0.33,0.56,-0.63,-1.17,-0.69,
0.439,1.20,-0.33,0.56,-0.63,-1.13,-0.70,
0.457,1.20,-0.33,0.56,-0.62,-1.11,-0.70,
0.457,1.20,-0.33,0.56,-0.62,-1.08,-0.70,
0.457,1.20,-0.33,0.56,-0.61,-1.04,-0.70,
0.457,1.20,-0.33,0.56,-0.59,-1.01,-0.70,
0.458,1.31,-0.43,0.66,-0.59,-1.01,-0.70,
0.458,1.31,-0.43,0.66,-0.58,-0.97,-0.70,
0.458,1.31,-0.43,0.66,-0.57,-0.94,-0.70,
0.458,1.31,-0.43,0.66,-0.55,-0.91,-0.70,
0.458,1.31,-0.43,0.66,-0.54,-0.88,-0.70,
0.459,1.31,-0.43,0.66,-0.53,-0.85,-0.70,
0.459,1.34,-0.51,0.48,-0.53,-0.85,-0.70,
0.459,1.34,-0.51,0.48,-0.51,-0.83,-0.69,
0.463,1.34,-0.51,0.48,-0.50,-0.82,-0.69,
0.464,1.34,-0.51,0.48,-0.48,-0.81,-0.69,
0.465,1.34,-0.51,0.48,-0.47,-0.81,-0.69,
0.47,1.34,-0.51,0.48,-0.46,-0.81,-0.69,
0.473,1.20,-0.52,0.24,-0.46,-0.81,-0.69,
0.474,1.20,-0.52,0.24,-0.45,-0.82,-0.70,
0.474,1.20,-0.52,0.24,-0.45,-0.82,-0.70,
0.474,1.20,-0.52,0.24,-0.44,-0.81,-0.71,
0.475,1.20,-0.52,0.24,-0.43,-0.81,-0.71,
0.477,1.20,-0.52,0.24,-0.43,-0.80,-0.72,
0.479,1.24,-0.38,-0.11,-0.43,-0.80,-0.72,
0.479,1.24,-0.38,-0.11,-0.43,-0.78,-0.72,
0.481,1.24,-0.38,-0.11,-0.43,-0.77,-0.73,
0.483,1.24,-0.38,-0.11,-0.43,-0.74,-0.74,
0.486,1.24,-0.38,-0.11,-0.43,-0.72,-0.74,
0.487,1.24,-0.38,-0.11,-0.43,-0.70,-0.75,
0.489,1.14,-0.26,-0.35,-0.43,-0.70,-0.75,
0.49,1.14,-0.26,-0.35,-0.43,-0.68,-0.76,
0.491,1.14,-0.26,-0.35,-0.43,-0.66,-0.77,
0.493,1.14,-0.26,-0.35,-0.42,-0.64,-0.77,
0.495,1.14,-0.26,-0.35,-0.42,-0.63,-0.78,
0.497,1.14,-0.26,-0.35,-0.42,-0.62,-0.79,
0.5,1.00,-0.33,-0.54,-0.42,-0.62,-0.79,
0.5,1.00,-0.33,-0.54,-0.41,-0.61,-0.79,
0.502,1.00,-0.33,-0.54,-0.40,-0.60,-0.79,
0.503,1.00,-0.33,-0.54,-0.40,-0.60,-0.80,
0.505,1.00,-0.33,-0.54,-0.39,-0.59,-0.80,
0.507,1.00,-0.33,-0.54,-0.38,-0.59,-0.80,
0.509,0.68,-0.33,-0.82,-0.38,-0.59,-0.80,
0.51,0.68,-0.33,-0.82,-0.37,-0.59,-0.80,
0.512,0.68,-0.33,-0.82,-0.37,-0.59,-0.80,
0.513,0.68,-0.33,-0.82,-0.36,-0.59,-0.80,
0.515,0.68,-0.33,-0.82,-0.35,-0.59,-0.79,
0.518,0.68,-0.33,-0.82,-0.34,-0.59,-0.79,
0.519,0.41,-0.24,-0.97,-0.34,-0.59,-0.79,
0.52,0.41,-0.24,-0.97,-0.33,-0.58,-0.78,
0.521,0.41,-0.24,-0.97,-0.32,-0.57,-0.78,
0.523,0.41,-0.24,-0.97,-0.30,-0.56,-0.77,
0.525,0.41,-0.24,-0.97,-0.29,-0.56,-0.77,
0.527,0.41,-0.24,-0.97,-0.28,-0.55,-0.76,
0.53,0.18,-0.18,-1.03,-0.28,-0.55,-0.76,
0.53,0.18,-0.18,-1.03,-0.27,-0.54,-0.75,
0.531,0.18,-0.18,-1.03,-0.26,-0.53,-0.75,
0.532,0.18,-0.18,-1.03,-0.25,-0.52,-0.74,
0.535,0.18,-0.18,-1.03,-0.23,-0.52,-0.73,
0.537,0.18,-0.18,-1.03,-0.22,-0.52,-0.72,
0.539,0.08,-0.23,-1.10,-0.22,-0.52,-0.72,
0.54,0.08,-0.23,-1.10,-0.21,-0.51,-0.71,
0.541,0.08,-0.23,-1.10,-0.20,-0.51,-0.71,
0.543,0.08,-0.23,-1.10,-0.19,-0.51,-0.70,
0.545,0.08,-0.23,-1.10,-0.18,-0.51,-0.70,
0.547,0.08,-0.23,-1.10,-0.17,-0.51,-0.69,
0.549,0.01,-0.19,-1.24,-0.17,-0.51,-0.69,
0.55,0.01,-0.19,-1.24,-0.17,-0.51,-0.69,
0.557,0.01,-0.19,-1.24,-0.16,-0.52,-0.68,
0.557,0.01,-0.19,-1.24,-0.16,-0.52,-0.68,
0.558,0.01,-0.19,-1.24,-0.15,-0.53,-0.68,
0.558,0.01,-0.19,-1.24,-0.15,-0.54,-0.68,
0.559,-0.03,-0.10,-1.37,-0.15,-0.54,-0.68,
0.559,-0.03,-0.10,-1.37,-0.15,-0.54,-0.67,
0.562,-0.03,-0.10,-1.37,-0.15,-0.54,-0.67,
0.564,-0.03,-0.10,-1.37,-0.16,-0.55,-0.67,
0.58,-0.03,-0.10,-1.37,-0.16,-0.56,-0.66,
0.58,-0.03,-0.10,-1.37,-0.16,-0.57,-0.66,
0.58,0.05,-0.02,-1.43,-0.16,-0.57,-0.66,
0.58,0.05,-0.02,-1.43,-0.16,-0.58,-0.65,
0.58,0.05,-0.02,-1.43,-0.16,-0.58,-0.65,
0.581,0.05,-0.02,-1.43,-0.16,-0.59,-0.65,
0.581,0.05,-0.02,-1.43,-0.16,-0.60,-0.65,
0.581,0.05,-0.02,-1.43,-0.16,-0.60,-0.64,
0.581,0.09,0.11,-1.36,-0.16,-0.60,-0.64,
0.581,0.09,0.11,-1.36,-0.16,-0.60,-0.63,
0.581,0.09,0.11,-1.36,-0.16,-0.60,-0.63,
0.585,0.09,0.11,-1.36,-0.16,-0.59,-0.62,
0.586,0.09,0.11,-1.36,-0.16,-0.59,-0.62,
0.587,0.09,0.11,-1.36,-0.15,-0.58,-0.61,
0.59,0.17,0.12,-1.13,-0.15,-0.58,-0.61,
0.59,0.17,0.12,-1.13,-0.14,-0.56,-0.61,
0.591,0.17,0.12,-1.13,-0.14,-0.55,-0.60,
0.593,0.17,0.12,-1.13,-0.14,-0.52,-0.59,
0.595,0.17,0.12,-1.13,-0.13,-0.50,-0.58,
0.597,0.17,0.12,-1.13,-0.12,-0.47,-0.57,
0.601,0.32,0.08,-0.89,-0.12,-0.47,-0.57,
0.602,0.32,0.08,-0.89,-0.12,-0.43,-0.57,
0.602,0.32,0.08,-0.89,-0.10,-0.37,-0.55,
0.604,0.32,0.08,-0.89,-0.09,-0.33,-0.54,
0.605,0.32,0.08,-0.89,-0.09,-0.31,-0.54,
0.607,0.32,0.08,-0.89,-0.08,-0.28,-0.54,
0.63,0.38,0.13,-0.80,-0.08,-0.28,-0.54,
0.63,0.38,0.13,-0.80,-0.08,-0.24,-0.53,
0.63,0.38,0.13,-0.80,-0.07,-0.20,-0.53,
0.631,0.38,0.13,-0.80,-0.06,-0.17,-0.53,
0.631,0.38,0.13,-0.80,-0.06,-0.14,-0.52,
0.631,0.38,0.13,-0.80,-0.06,-0.12,-0.52,
0.631,0.50,0.27,-0.96,-0.06,-0.12,-0.52,
0.632,0.50,0.27,-0.96,-0.06,-0.10,-0.52,
0.632,0.50,0.27,-0.96,-0.06,-0.08,-0.51,
0.632,0.50,0.27,-0.96,-0.06,-0.05,-0.51,
0.632,0.50,0.27,-0.96,-0.06,-0.04,-0.51,
0.633,0.50,0.27,-0.96,-0.05,-0.03,-0.51,
0.633,0.42,0.40,-1.21,-0.05,-0.03,-0.51,
0.633,0.42,0.40,-1.21,-0.06,-0.02,-0.50,
0.633,0.42,0.40,-1.21,-0.06,-0.01,-0.50,
0.634,0.42,0.40,-1.21,-0.06,-0.01,-0.50,
0.64,0.42,0.40,-1.21,-0.07,-0.01,-0.50,
0.64,0.42,0.40,-1.21,-0.07,-0.01,-0.51,
0.64,0.28,0.49,-1.49,-0.07,-0.01,-0.51,
0.641,0.28,0.49,-1.49,-0.08,-0.01,-0.51,
0.641,0.28,0.49,-1.49,-0.09,-0.01,-0.51,
0.643,0.28,0.49,-1.49,-0.10,-0.02,-0.52,
0.645,0.28,0.49,-1.49,-0.11,-0.02,-0.52,
0.647,0.28,0.49,-1.49,-0.12,-0.03,-0.52,
0.653,0.16,0.49,-1.69,-0.12,-0.03,-0.52,
0.653,0.16,0.49,-1.69,-0.13,-0.04,-0.52,
0.653,0.16,0.49,-1.69,-0.14,-0.04,-0.52,
0.654,0.16,0.49,-1.69,-0.15,-0.05,-0.53,
0.657,0.16,0.49,-1.69,-0.17,-0.05,-0.54,
0.657,0.16,0.49,-1.69,-0.18,-0.06,-0.54,
0.659,0.27,0.61,-1.66,-0.18,-0.06,-0.54,
0.66,0.27,0.61,-1.66,-0.18,-0.06,-0.54,
0.661,0.27,0.61,-1.66,-0.19,-0.06,-0.54,
0.663,0.27,0.61,-1.66,-0.19,-0.06,-0.54,
0.665,0.27,0.61,-1.66,-0.20,-0.06,-0.54,
0.667,0.27,0.61,-1.66,-0.20,-0.06,-0.55,
0.672,0.17,0.68,-1.37,-0.20,-0.06,-0.55,
0.673,0.17,0.68,-1.37,-0.20,-0.06,-0.55,
0.673,0.17,0.68,-1.37,-0.20,-0.05,-0.54,
0.673,0.17,0.68,-1.37,-0.20,-0.05,-0.55,
0.675,0.17,0.68,-1.37,-0.20,-0.04,-0.55,
0.685,0.17,0.68,-1.37,-0.20,-0.04,-0.55,
0.686,0.10,0.77,-1.12,-0.20,-0.04,-0.55,
0.686,0.10,0.77,-1.12,-0.20,-0.03,-0.56,
0.686,0.10,0.77,-1.12,-0.20,-0.02,-0.56,
0.688,0.10,0.77,-1.12,-0.20,-0.00,-0.56,
0.688,0.10,0.77,-1.12,-0.20,0.02,-0.56,
0.689,0.10,0.77,-1.12,-0.20,0.04,-0.56,
0.692,0.04,0.91,-1.02,-0.20,0.04,-0.56,
0.693,0.04,0.91,-1.02,-0.20,0.06,-0.55,
0.694,0.04,0.91,-1.02,-0.20,0.08,-0.55,
0.695,0.04,0.91,-1.02,-0.21,0.09,-0.55,
0.695,0.04,0.91,-1.02,-0.21,0.11,-0.55,
0.697,0.04,0.91,-1.02,-0.22,0.12,-0.55,
0.707,-0.06,1.04,-0.97,-0.22,0.12,-0.55,
0.707,-0.06,1.04,-0.97,-0.22,0.13,-0.54,
0.708,-0.06,1.04,-0.97,-0.22,0.14,-0.54,
0.708,-0.06,1.04,-0.97,-0.23,0.15,-0.53,
0.708,-0.06,1.04,-0.97,-0.23,0.16,-0.53,
0.709,-0.06,1.04,-0.97,-0.23,0.17,-0.52,
0.71,-0.14,1.14,-0.79,-0.23,0.17,-0.52,
0.71,-0.14,1.14,-0.79,-0.23,0.18,-0.51,
0.711,-0.14,1.14,-0.79,-0.23,0.19,-0.49,
0.713,-0.14,1.14,-0.79,-0.23,0.20,-0.48,
0.742,-0.14,1.14,-0.79,-0.24,0.21,-0.47,
0.742,-0.14,1.14,-0.79,-0.24,0.22,-0.45,
0.742,-0.42,1.26,-0.60,-0.24,0.22,-0.45,
0.743,-0.42,1.26,-0.60,-0.24,0.23,-0.44,
0.743,-0.42,1.26,-0.60,-0.24,0.23,-0.43,
0.743,-0.42,1.26,-0.60,-0.24,0.24,-0.41,
0.743,-0.42,1.26,-0.60,-0.23,0.24,-0.41,
0.743,-0.42,1.26,-0.60,-0.23,0.25,-0.40,
0.743,-0.61,1.37,-0.36,-0.23,0.25,-0.40,
0.744,-0.61,1.37,-0.36,-0.22,0.25,-0.39,
0.744,-0.61,1.37,-0.36,-0.22,0.25,-0.39,
0.744,-0.61,1.37,-0.36,-0.21,0.24,-0.38,
0.744,-0.61,1.37,-0.36,-0.21,0.24,-0.37,
0.744,-0.61,1.37,-0.36,-0.20,0.23,-0.37,
0.745,-0.79,1.57,-0.05,-0.20,0.23,-0.37,
0.745,-0.79,1.57,-0.05,-0.19,0.22,-0.37,
0.745,-0.79,1.57,-0.05,-0.18,0.21,-0.37,
0.745,-0.79,1.57,-0.05,-0.17,0.19,-0.37,
0.747,-0.79,1.57,-0.05,-0.16,0.16,-0.37,
0.747,-0.79,1.57,-0.05,-0.15,0.13,-0.37,
0.751,-0.89,1.72,0.21,-0.15,0.13,-0.37,
0.752,-0.89,1.72,0.21,-0.14,0.11,-0.36,
0.752,-0.89,1.72,0.21,-0.12,0.07,-0.36,
0.753,-0.89,1.72,0.21,-0.11,0.04,-0.36,
0.755,-0.89,1.72,0.21,-0.10,0.01,-0.36,
0.757,-0.89,1.72,0.21,-0.08,-0.02,-0.36,
0.759,-0.84,1.91,0.44,-0.08,-0.02,-0.36,
0.759,-0.84,1.91,0.44,-0.07,-0.06,-0.36,
0.761,-0.84,1.91,0.44,-0.05,-0.09,-0.35,
0.763,-0.84,1.91,0.44,-0.04,-0.12,-0.35,
0.765,-0.84,1.91,0.44,-0.02,-0.15,-0.34,
0.767,-0.84,1.91,0.44,-0.00,-0.18,-0.33,
0.77,-0.93,1.98,0.74,-0.00,-0.18,-0.33,
0.77,-0.93,1.98,0.74,0.01,-0.21,-0.32,
0.774,-0.93,1.98,0.74,0.05,-0.25,-0.31,
0.774,-0.93,1.98,0.74,0.05,-0.25,-0.31,
0.807,-0.93,1.98,0.74,0.07,-0.27,-0.30,
0.807,-0.93,1.98,0.74,0.09,-0.28,-0.29,
0.808,-0.85,2.11,1.05,0.09,-0.28,-0.29,
0.808,-0.85,2.11,1.05,0.11,-0.29,-0.28,
0.808,-0.85,2.11,1.05,0.13,-0.30,-0.27,
0.808,-0.85,2.11,1.05,0.14,-0.30,-0.26,
0.809,-0.85,2.11,1.05,0.16,-0.30,-0.25,
0.809,-0.85,2.11,1.05,0.18,-0.30,-0.23,
0.809,-0.84,2.13,1.35,0.18,-0.30,-0.23,
0.81,-0.84,2.13,1.35,0.20,-0.30,-0.22,
0.81,-0.84,2.13,1.35,0.21,-0.30,-0.20,
0.81,-0.84,2.13,1.35,0.23,-0.29,-0.18,
0.81,-0.84,2.13,1.35,0.24,-0.29,-0.15,
0.811,-0.84,2.13,1.35,0.26,-0.27,-0.12,
0.811,-0.93,2.09,1.52,0.26,-0.27,-0.12,
0.811,-0.93,2.09,1.52,0.27,-0.26,-0.09,
0.811,-0.93,2.09,1.52,0.28,-0.24,-0.06,
0.812,-0.93,2.09,1.52,0.29,-0.22,-0.02,
0.812,-0.93,2.09,1.52,0.30,-0.20,0.01,
0.812,-0.93,2.09,1.52,0.31,-0.19,0.05,
0.812,-1.08,2.03,1.57,0.31,-0.19,0.05,
0.813,-1.08,2.03,1.57,0.32,-0.16,0.08,
0.813,-1.08,2.03,1.57,0.32,-0.14,0.12,
0.819,-1.08,2.03,1.57,0.33,-0.13,0.15,
0.82,-1.08,2.03,1.57,0.34,-0.11,0.18,
0.82,-1.08,2.03,1.57,0.34,-0.10,0.21,
0.82,-0.79,2.03,1.53,0.34,-0.10,0.21,
0.821,-0.79,2.03,1.53,0.34,-0.08,0.24,
0.822,-0.79,2.03,1.53,0.35,-0.07,0.26,
0.823,-0.79,2.03,1.53,0.35,-0.07,0.29,
0.825,-0.79,2.03,1.53,0.35,-0.06,0.32,
0.827,-0.79,2.03,1.53,0.36,-0.06,0.34,
0.829,-0.46,2.11,1.53,0.36,-0.06,0.34,
0.83,-0.46,2.11,1.53,0.36,-0.06,0.36,
0.831,-0.46,2.11,1.53,0.36,-0.06,0.38,
0.836,-0.46,2.11,1.53,0.36,-0.07,0.40,
0.836,-0.46,2.11,1.53,0.36,-0.07,0.41,
0.838,-0.46,2.11,1.53,0.36,-0.08,0.43,
0.84,-0.00,2.29,1.56,0.36,-0.08,0.43,
0.84,-0.00,2.29,1.56,0.36,-0.09,0.44,
0.841,-0.00,2.29,1.56,0.36,-0.09,0.45,
0.843,-0.00,2.29,1.56,0.36,-0.10,0.46,
0.845,-0.00,2.29,1.56,0.36,-0.10,0.47,
0.847,-0.00,2.29,1.56,0.37,-0.10,0.47,
0.856,0.50,2.34,1.55,0.37,-0.10,0.47,
0.856,0.50,2.34,1.55,0.37,-0.10,0.47,
0.856,0.50,2.34,1.55,0.37,-0.09,0.47,
0.856,0.50,2.34,1.55,0.37,-0.09,0.47,
0.857,0.50,2.34,1.55,0.37,-0.09,0.46,
0.857,0.50,2.34,1.55,0.37,-0.08,0.46,
0.887,0.91,2.24,1.36,0.37,-0.08,0.46,
0.887,0.91,2.24,1.36,0.36,-0.08,0.45,
0.887,0.91,2.24,1.36,0.36,-0.07,0.45,
0.888,0.91,2.24,1.36,0.35,-0.07,0.44,
0.888,0.91,2.24,1.36,0.34,-0.06,0.44,
0.888,0.91,2.24,1.36,0.33,-0.06,0.43,
0.888,0.99,2.01,1.16,0.33,-0.06,0.43,
0.889,0.99,2.01,1.16,0.32,-0.05,0.43,
0.889,0.99,2.01,1.16,0.30,-0.05,0.42,
0.889,0.99,2.01,1.16,0.29,-0.05,0.42,
0.889,0.99,2.01,1.16,0.27,-0.04,0.41,
0.89,0.99,2.01,1.16,0.26,-0.04,0.40,
0.89,0.96,1.81,0.96,0.26,-0.04,0.40,
0.89,0.96,1.81,0.96,0.24,-0.03,0.39,
0.89,0.96,1.81,0.96,0.22,-0.03,0.39,
0.891,0.96,1.81,0.96,0.21,-0.02,0.38,
0.891,0.96,1.81,0.96,0.19,-0.02,0.37,
0.891,0.96,1.81,0.96,0.17,-0.01,0.36,
0.891,0.74,1.58,0.96,0.17,-0.01,0.36,
0.891,0.74,1.58,0.96,0.16,-0.00,0.35,
0.892,0.74,1.58,0.96,0.14,0.00,0.35,
0.893,0.74,1.58,0.96,0.13,0.01,0.34,
0.895,0.74,1.58,0.96,0.11,0.01,0.33,
0.898,0.74,1.58,0.96,0.09,0.02,0.33,
0.902,0.57,1.50,1.06,0.09,0.02,0.33,
0.905,0.57,1.50,1.06,0.08,0.03,0.32,
0.906,0.57,1.50,1.06,0.06,0.04,0.32,
0.906,0.57,1.50,1.06,0.04,0.05,0.32,
0.909,0.57,1.50,1.06,0.02,0.07,0.32,
0.91,0.57,1.50,1.06,0.00,0.09,0.32,
0.91,0.37,1.39,1.09,0.00,0.09,0.32,
0.911,0.37,1.39,1.09,-0.02,0.11,0.32,
0.911,0.37,1.39,1.09,-0.04,0.14,0.32,
0.913,0.37,1.39,1.09,-0.07,0.17,0.32,
0.919,0.37,1.39,1.09,-0.09,0.19,0.32,
0.919,0.37,1.39,1.09,-0.11,0.22,0.32,
0.919,0.26,1.25,1.03,-0.11,0.22,0.32,
0.919,0.26,1.25,1.03,-0.14,0.25,0.33,
0.921,0.26,1.25,1.03,-0.17,0.27,0.33,
0.923,0.26,1.25,1.03,-0.20,0.30,0.34,
0.925,0.26,1.25,1.03,-0.23,0.32,0.34,
0.927,0.26,1.25,1.03,-0.26,0.35,0.35,
0.929,0.11,0.96,1.11,-0.26,0.35,0.35,
0.93,0.11,0.96,1.11,-0.29,0.37,0.36,
0.931,0.11,0.96,1.11,-0.32,0.39,0.37,
0.933,0.11,0.96,1.11,-0.35,0.41,0.39,
0.935,0.11,0.96,1.11,-0.38,0.43,0.40,
0.937,0.11,0.96,1.11,-0.40,0.44,0.41,
0.939,0.16,0.68,1.68,-0.40,0.44,0.41,
0.94,0.16,0.68,1.68,-0.42,0.46,0.42,
0.96,0.16,0.68,1.68,-0.44,0.46,0.44,
0.961,0.16,0.68,1.68,-0.46,0.47,0.45,
0.961,0.16,0.68,1.68,-0.48,0.47,0.46,
0.961,0.16,0.68,1.68,-0.49,0.47,0.47,
0.961,0.27,0.44,2.69,-0.49,0.47,0.47,
0.961,0.27,0.44,2.69,-0.50,0.46,0.49,
0.962,0.27,0.44,2.69,-0.51,0.45,0.50,
0.962,0.27,0.44,2.69,-0.51,0.44,0.51,
0.962,0.27,0.44,2.69,-0.51,0.43,0.52,
0.962,0.27,0.44,2.69,-0.51,0.42,0.53,
0.962,0.59,0.24,3.90,-0.51,0.42,0.53,
0.963,0.59,0.24,3.90,-0.50,0.41,0.53,
0.963,0.59,0.24,3.90,-0.49,0.40,0.54,
0.963,0.59,0.24,3.90,-0.48,0.40,0.54,
0.976,0.59,0.24,3.90,-0.46,0.39,0.55,
0.976,0.59,0.24,3.90,-0.44,0.38,0.55,
0.977,0.88,0.13,4.99,-0.44,0.38,0.55,
0.977,0.88,0.13,4.99,-0.41,0.37,0.55,
0.977,0.88,0.13,4.99,-0.39,0.37,0.55,
0.977,0.88,0.13,4.99,-0.36,0.36,0.54,
0.977,0.88,0.13,4.99,-0.32,0.35,0.54,
0.978,0.88,0.13,4.99,-0.29,0.34,0.53,
0.986,1.19,0.01,5.84,-0.29,0.34,0.53,
0.987,1.19,0.01,5.84,-0.25,0.34,0.53,
0.987,1.19,0.01,5.84,-0.21,0.33,0.52,
0.994,1.19,0.01,5.84,-0.14,0.31,0.51,
0.994,1.19,0.01,5.84,-0.12,0.31,0.51,
0.995,1.19,0.01,5.84,-0.08,0.29,0.51,
0.995,1.18,-0.15,6.25,-0.08,0.29,0.51,
0.995,1.18,-0.15,6.25,-0.04,0.28,0.50,
0.995,1.18,-0.15,6.25,0.01,0.27,0.50,
0.996,1.18,-0.15,6.25,0.08,0.25,0.49,
0.996,1.18,-0.15,6.25,0.10,0.25,0.49,
0.997,1.18,-0.15,6.25,0.14,0.23,0.49,
1.018,1.14,-0.32,6.24,0.14,0.23,0.49,
1.019,1.14,-0.32,6.24,0.19,0.22,0.48,
1.019,1.14,-0.32,6.24,0.23,0.21,0.48,
1.019,1.14,-0.32,6.24,0.27,0.21,0.49,
1.019,1.14,-0.32,6.24,0.32,0.20,0.49,
1.02,1.14,-0.32,6.24,0.36,0.20,0.49,
1.02,1.01,-0.41,5.94,0.36,0.20,0.49,
1.02,1.01,-0.41,5.94,0.40,0.19,0.49,
1.02,1.01,-0.41,5.94,0.44,0.19,0.49,
1.02,1.01,-0.41,5.94,0.48,0.19,0.49,
1.021,1.01,-0.41,5.94,0.52,0.19,0.50,
1.021,1.01,-0.41,5.94,0.56,0.19,0.50,
1.021,0.98,-0.62,5.35,0.56,0.19,0.50,
1.021,0.98,-0.62,5.35,0.59,0.20,0.50,
1.022,0.98,-0.62,5.35,0.63,0.20,0.50,
1.024,0.98,-0.62,5.35,0.65,0.20,0.50,
1.025,0.98,-0.62,5.35,0.68,0.20,0.50,
1.027,0.98,-0.62,5.35,0.71,0.20,0.50,
1.029,0.93,-0.73,4.53,0.71,0.20,0.50,
1.03,0.93,-0.73,4.53,0.73,0.20,0.50,
1.033,0.93,-0.73,4.53,0.75,0.20,0.50,
1.034,0.93,-0.73,4.53,0.77,0.20,0.50,
1.034,0.93,-0.73,4.53,0.78,0.20,0.50,
1.037,0.93,-0.73,4.53,0.80,0.20,0.50,
1.039,0.81,-0.87,3.74,0.80,0.20,0.50,
1.039,0.81,-0.87,3.74,0.82,0.20,0.50,
1.041,0.81,-0.87,3.74,0.83,0.20,0.50,
1.043,0.81,-0.87,3.74,0.85,0.21,0.51,
1.045,0.81,-0.87,3.74,0.86,0.21,0.52,
1.047,0.81,-0.87,3.74,0.87,0.21,0.52,
1.05,0.60,-1.03,2.96,0.87,0.21,0.52,
1.05,0.60,-1.03,2.96,0.88,0.22,0.53,
1.051,0.60,-1.03,2.96,0.89,0.22,0.54,
1.053,0.60,-1.03,2.96,0.90,0.21,0.54,
1.055,0.60,-1.03,2.96,0.91,0.21,0.55,
1.059,0.60,-1.03,2.96,0.91,0.21,0.55,
1.061,0.48,-1.25,2.20,0.91,0.21,0.55,
1.061,0.48,-1.25,2.20,0.92,0.20,0.55,
1.061,0.48,-1.25,2.20,0.93,0.19,0.56,
1.063,0.48,-1.25,2.20,0.93,0.18,0.56,
1.066,0.48,-1.25,2.20,0.94,0.17,0.56,
1.067,0.48,-1.25,2.20,0.94,0.16,0.56,
1.07,0.44,-1.24,1.50,0.94,0.16,0.56,
1.071,0.44,-1.24,1.50,0.95,0.14,0.56,
1.071,0.44,-1.24,1.50,0.95,0.12,0.56,
1.073,0.44,-1.24,1.50,0.96,0.11,0.55,
1.075,0.44,-1.24,1.50,0.96,0.09,0.55,
1.077,0.44,-1.24,1.50,0.96,0.08,0.55,
1.079,0.41,-1.28,0.93,0.96,0.08,0.55,
1.08,0.41,-1.28,0.93,0.97,0.06,0.54,
1.083,0.41,-1.28,0.93,0.97,0.04,0.54,
1.084,0.41,-1.28,0.93,0.97,0.02,0.53,
1.086,0.41,-1.28,0.93,0.97,0.00,0.53,
1.087,0.41,-1.28,0.93,0.97,-0.02,0.52,
1.089,0.43,-1.29,0.34,0.97,-0.02,0.52,
1.09,0.43,-1.29,0.34,0.97,-0.04,0.51,
1.091,0.43,-1.29,0.34,0.97,-0.06,0.50,
1.092,0.43,-1.29,0.34,0.97,-0.08,0.49,
1.095,0.43,-1.29,0.34,0.96,-0.11,0.48,
1.097,0.43,-1.29,0.34,0.96,-0.13,0.47,
1.104,0.54,-1.34,-0.10,0.96,-0.13,0.47,
1.105,0.54,-1.34,-0.10,0.95,-0.15,0.46,
1.105,0.54,-1.34,-0.10,0.95,-0.17,0.45,
1.106,0.54,-1.34,-0.10,0.94,-0.20,0.44,
1.106,0.54,-1.34,-0.10,0.94,-0.22,0.42,
1.107,0.54,-1.34,-0.10,0.93,-0.24,0.41,
1.126,0.68,-1.30,-0.43,0.93,-0.24,0.41,
1.127,0.68,-1.30,-0.43,0.93,-0.26,0.40,
1.127,0.68,-1.30,-0.43,0.92,-0.27,0.38,
1.127,0.68,-1.30,-0.43,0.91,-0.29,0.37,
1.127,0.68,-1.30,-0.43,0.90,-0.30,0.35,
1.128,0.68,-1.30,-0.43,0.89,-0.31,0.34,
1.128,0.87,-1.32,-0.72,0.89,-0.31,0.34,
1.128,0.87,-1.32,-0.72,0.88,-0.31,0.32,
1.128,0.87,-1.32,-0.72,0.87,-0.32,0.30,
1.129,0.87,-1.32,-0.72,0.86,-0.33,0.28,
1.129,0.87,-1.32,-0.72,0.85,-0.33,0.27,
1.129,0.87,-1.32,-0.72,0.83,-0.33,0.25,
1.13,0.94,-1.44,-1.07,0.83,-0.33,0.25,
1.13,0.94,-1.44,-1.07,0.81,-0.33,0.24,
1.137,0.94,-1.44,-1.07,0.80,-0.32,0.22,
1.137,0.94,-1.44,-1.07,0.78,-0.32,0.21,
1.138,0.94,-1.44,-1.07,0.75,-0.31,0.20,
1.138,0.94,-1.44,-1.07,0.73,-0.29,0.18,
1.139,0.86,-1.61,-1.42,0.73,-0.29,0.18,
1.139,0.86,-1.61,-1.42,0.71,-0.27,0.17,
1.141,0.86,-1.61,-1.42,0.68,-0.25,0.17,
1.143,0.86,-1.61,-1.42,0.66,-0.22,0.16,
1.144,0.86,-1.61,-1.42,0.63,-0.20,0.15,
1.147,0.86,-1.61,-1.42,0.60,-0.17,0.14,
1.151,0.70,-1.73,-1.73,0.60,-0.17,0.14,
1.151,0.70,-1.73,-1.73,0.58,-0.14,0.14,
1.152,0.70,-1.73,-1.73,0.55,-0.11,0.13,
1.153,0.70,-1.73,-1.73,0.52,-0.08,0.13,
1.155,0.70,-1.73,-1.73,0.49,-0.05,0.12,
1.164,0.70,-1.73,-1.73,0.46,-0.01,0.12,
1.164,0.62,-1.85,-2.00,0.46,-0.01,0.12,
1.164,0.62,-1.85,-2.00,0.43,0.02,0.11,
1.165,0.62,-1.85,-2.00,0.40,0.05,0.11,
1.165,0.62,-1.85,-2.00,0.37,0.09,0.11,
1.166,0.62,-1.85,-2.00,0.34,0.12,0.10,
1.167,0.62,-1.85,-2.00,0.31,0.15,0.10,
1.175,0.56,-1.84,-2.14,0.31,0.15,0.10,
1.175,0.56,-1.84,-2.14,0.28,0.19,0.10,
1.175,0.56,-1.84,-2.14,0.26,0.22,0.09,
1.176,0.56,-1.84,-2.14,0.23,0.25,0.09,
1.176,0.56,-1.84,-2.14,0.21,0.28,0.09,
1.177,0.56,-1.84,-2.14,0.18,0.31,0.08,
1.179,0.57,-1.91,-2.25,0.18,0.31,0.08,
1.18,0.57,-1.91,-2.25,0.16,0.34,0.08,
1.182,0.57,-1.91,-2.25,0.14,0.37,0.07,
1.183,0.57,-1.91,-2.25,0.12,0.39,0.07,
1.185,0.57,-1.91,-2.25,0.10,0.42,0.06,
1.187,0.57,-1.91,-2.25,0.08,0.44,0.06,
1.19,0.60,-1.88,-2.36,0.08,0.44,0.06,
1.19,0.60,-1.88,-2.36,0.06,0.46,0.05,
1.192,0.60,-1.88,-2.36,0.05,0.48,0.04,
1.193,0.60,-1.88,-2.36,0.03,0.49,0.04,
1.195,0.60,-1.88,-2.36,0.02,0.51,0.03,
1.2,0.60,-1.88,-2.36,0.00,0.51,0.02,
1.202,0.66,-1.81,-2.38,0.00,0.51,0.02,
1.203,0.66,-1.81,-2.38,-0.01,0.52,0.01,
1.203,0.66,-1.81,-2.38,-0.02,0.53,0.00,
1.204,0.66,-1.81,-2.38,-0.03,0.52,-0.01,
1.205,0.66,-1.81,-2.38,-0.04,0.52,-0.02,
1.207,0.66,-1.81,-2.38,-0.04,0.52,-0.03,
1.21,0.64,-1.68,-2.39,-0.04,0.52,-0.03,
1.21,0.64,-1.68,-2.39,-0.05,0.52,-0.04,
1.211,0.64,-1.68,-2.39,-0.06,0.51,-0.06,
1.213,0.64,-1.68,-2.39,-0.07,0.51,-0.06,
1.215,0.64,-1.68,-2.39,-0.07,0.50,-0.08,
1.219,0.64,-1.68,-2.39,-0.07,0.49,-0.09,
1.22,0.60,-1.62,-2.36,-0.07,0.49,-0.09,
1.22,0.60,-1.62,-2.36,-0.08,0.48,-0.10,
1.221,0.60,-1.62,-2.36,-0.08,0.46,-0.11,
1.223,0.60,-1.62,-2.36,-0.09,0.45,-0.12,
1.225,0.60,-1.62,-2.36,-0.09,0.43,-0.13,
1.227,0.60,-1.62,-2.36,-0.09,0.41,-0.14,
1.229,0.61,-1.60,-2.29,-0.09,0.41,-0.14,
1.23,0.61,-1.60,-2.29,-0.10,0.40,-0.15,
1.233,0.61,-1.60,-2.29,-0.10,0.38,-0.16,
1.235,0.61,-1.60,-2.29,-0.10,0.36,-0.17,
1.235,0.61,-1.60,-2.29,-0.11,0.35,-0.18,
1.237,0.61,-1.60,-2.29,-0.11,0.34,-0.19,
1.24,0.62,-1.55,-2.12,-0.11,0.34,-0.19,
1.241,0.62,-1.55,-2.12,-0.11,0.33,-0.19,
1.242,0.62,-1.55,-2.12,-0.11,0.33,-0.20,
1.243,0.62,-1.55,-2.12,-0.11,0.32,-0.21,
1.245,0.62,-1.55,-2.12,-0.11,0.32,-0.21,
1.259,0.62,-1.55,-2.12,-0.11,0.32,-0.22,
1.26,0.48,-1.60,-2.01,-0.11,0.32,-0.22,
1.26,0.48,-1.60,-2.01,-0.10,0.33,-0.22,
1.26,0.48,-1.60,-2.01,-0.10,0.34,-0.23,
1.26,0.48,-1.60,-2.01,-0.10,0.35,-0.23,
1.261,0.48,-1.60,-2.01,-0.10,0.36,-0.23,
1.261,0.48,-1.60,-2.01,-0.09,0.37,-0.23,
1.261,0.31,-1.67,-1.96,-0.09,0.37,-0.23,
1.261,0.31,-1.67,-1.96,-0.09,0.38,-0.23,
1.261,0.31,-1.67,-1.96,-0.09,0.40,-0.22,
1.293,0.31,-1.67,-1.96,-0.09,0.41,-0.21,
1.294,0.31,-1.67,-1.96,-0.09,0.43,-0.21,
1.294,0.31,-1.67,-1.96,-0.09,0.44,-0.20,
1.294,0.16,-1.61,-1.99,-0.09,0.44,-0.20,
1.295,0.16,-1.61,-1.99,-0.09,0.46,-0.19,
1.295,0.16,-1.61,-1.99,-0.10,0.47,-0.18,
1.295,0.16,-1.61,-1.99,-0.10,0.49,-0.17,
1.32,0.16,-1.61,-1.99,-0.11,0.50,-0.16,
1.32,0.16,-1.61,-1.99,-0.12,0.53,-0.14,
1.32,0.20,-1.55,-2.04,-0.12,0.53,-0.14,
1.321,0.20,-1.55,-2.04,-0.12,0.54,-0.14,
1.321,0.20,-1.55,-2.04,-0.12,0.55,-0.13,
1.321,0.20,-1.55,-2.04,-0.12,0.57,-0.13,
1.321,0.20,-1.55,-2.04,-0.13,0.58,-0.12,
1.322,0.20,-1.55,-2.04,-0.14,0.59,-0.12,
1.322,0.38,-1.37,-2.07,-0.14,0.59,-0.12,
1.322,0.38,-1.37,-2.07,-0.14,0.60,-0.12,
1.323,0.38,-1.37,-2.07,-0.14,0.60,-0.12,
1.323,0.38,-1.37,-2.07,-0.15,0.60,-0.12,
1.323,0.38,-1.37,-2.07,-0.15,0.61,-0.12,
1.323,0.38,-1.37,-2.07,-0.16,0.60,-0.12,
1.324,0.61,-1.17,-1.97,-0.16,0.60,-0.12,
1.324,0.61,-1.17,-1.97,-0.16,0.60,-0.12,
1.324,0.61,-1.17,-1.97,-0.16,0.59,-0.13,
1.324,0.61,-1.17,-1.97,-0.16,0.58,-0.13,
1.325,0.61,-1.17,-1.97,-0.16,0.58,-0.14,
1.325,0.61,-1.17,-1.97,-0.15,0.57,-0.14,
1.325,0.79,-0.91,-1.75,-0.15,0.57,-0.14,
1.325,0.79,-0.91,-1.75,-0.15,0.56,-0.15,
1.326,0.79,-0.91,-1.75,-0.15,0.54,-0.16,
1.326,0.79,-0.91,-1.75,-0.14,0.53,-0.17,
1.326,0.79,-0.91,-1.75,-0.14,0.51,-0.17,
1.326,0.79,-0.91,-1.75,-0.14,0.49,-0.18,
1.327,1.04,-0.71,-1.52,-0.14,0.49,-0.18,
1.327,1.04,-0.71,-1.52,-0.13,0.48,-0.19,
1.327,1.04,-0.71,-1.52,-0.13,0.46,-0.20,
1.328,1.04,-0.71,-1.52,-0.13,0.43,-0.21,
1.328,1.04,-0.71,-1.52,-0.12,0.40,-0.21,
1.328,1.04,-0.71,-1.52,-0.12,0.38,-0.22,
1.334,0.90,-0.59,-1.28,-0.12,0.38,-0.22,
1.334,0.90,-0.59,-1.28,-0.12,0.35,-0.23,
1.335,0.90,-0.59,-1.28,-0.11,0.32,-0.23,
1.335,0.90,-0.59,-1.28,-0.11,0.29,-0.23,
1.336,0.90,-0.59,-1.28,-0.11,0.26,-0.23,
1.337,0.90,-0.59,-1.28,-0.11,0.23,-0.23,
1.339,0.66,-0.55,-0.94,-0.11,0.23,-0.23,
1.34,0.66,-0.55,-0.94,-0.11,0.20,-0.22,
1.341,0.66,-0.55,-0.94,-0.11,0.17,-0.21,
1.343,0.66,-0.55,-0.94,-0.11,0.14,-0.20,
1.346,0.66,-0.55,-0.94,-0.10,0.12,-0.19,
1.347,0.66,-0.55,-0.94,-0.10,0.10,-0.17,
1.35,0.40,-0.50,-0.48,-0.10,0.10,-0.17,
1.35,0.40,-0.50,-0.48,-0.10,0.08,-0.16,
1.351,0.40,-0.50,-0.48,-0.09,0.06,-0.14,
1.353,0.40,-0.50,-0.48,-0.09,0.05,-0.12,
1.355,0.40,-0.50,-0.48,-0.09,0.04,-0.11,
1.357,0.40,-0.50,-0.48,-0.08,0.03,-0.10,
1.359,0.47,-0.44,-0.05,-0.08,0.03,-0.10,
1.359,0.47,-0.44,-0.05,-0.07,0.03,-0.08,
1.361,0.47,-0.44,-0.05,-0.07,0.03,-0.07,
1.364,0.47,-0.44,-0.05,-0.06,0.02,-0.05,
1.365,0.47,-0.44,-0.05,-0.06,0.02,-0.04,
1.367,0.47,-0.44,-0.05,-0.06,0.01,-0.03,
1.37,0.58,-0.39,0.34,-0.06,0.01,-0.03,
1.37,0.58,-0.39,0.34,-0.05,0.01,-0.02,
1.371,0.58,-0.39,0.34,-0.05,0.01,-0.00,
1.373,0.58,-0.39,0.34,-0.04,0.02,0.02,
1.375,0.58,-0.39,0.34,-0.04,0.02,0.02,
1.377,0.58,-0.39,0.34,-0.04,0.02,0.04,
1.379,0.76,-0.34,0.71,-0.04,0.02,0.04,
1.379,0.76,-0.34,0.71,-0.02,0.04,0.05,
1.386,0.76,-0.34,0.71,-0.02,0.06,0.06,
1.387,0.76,-0.34,0.71,-0.01,0.07,0.08,
1.388,0.76,-0.34,0.71,-0.00,0.08,0.08,
1.388,0.76,-0.34,0.71,0.01,0.11,0.09,
1.389,0.95,-0.25,1.02,0.01,0.11,0.09,
1.389,0.95,-0.25,1.02,0.01,0.13,0.10,
1.42,0.95,-0.25,1.02,0.02,0.15,0.11,
1.421,0.95,-0.25,1.02,0.04,0.19,0.12,
1.421,0.95,-0.25,1.02,0.04,0.21,0.13,
1.421,0.95,-0.25,1.02,0.05,0.23,0.14,
1.421,1.15,-0.14,1.05,0.05,0.23,0.14,
1.421,1.15,-0.14,1.05,0.06,0.26,0.15,
1.421,1.15,-0.14,1.05,0.07,0.28,0.16,
1.422,1.15,-0.14,1.05,0.08,0.29,0.16,
1.422,1.15,-0.14,1.05,0.08,0.30,0.17,
1.422,1.15,-0.14,1.05,0.08,0.31,0.17,
1.422,1.12,0.03,0.82,0.08,0.31,0.17,
1.422,1.12,0.03,0.82,0.08,0.31,0.18,
1.422,1.12,0.03,0.82,0.08,0.31,0.19,
1.422,1.12,0.03,0.82,0.08,0.30,0.19,
1.423,1.12,0.03,0.82,0.07,0.30,0.19,
1.423,1.12,0.03,0.82,0.07,0.29,0.20,
1.423,1.07,0.25,0.51,0.07,0.29,0.20,
1.423,1.07,0.25,0.51,0.06,0.27,0.20,
1.423,1.07,0.25,0.51,0.05,0.25,0.21,
1.423,1.07,0.25,0.51,0.04,0.24,0.21,
1.425,1.07,0.25,0.51,0.03,0.23,0.22,
1.427,1.07,0.25,0.51,0.02,0.21,0.22,
1.431,0.85,0.49,0.24,0.02,0.21,0.22,
1.432,0.85,0.49,0.24,-0.00,0.19,0.23,
1.433,0.85,0.49,0.24,-0.02,0.18,0.24,
1.433,0.85,0.49,0.24,-0.04,0.16,0.25,
1.435,0.85,0.49,0.24,-0.05,0.15,0.26,
1.438,0.85,0.49,0.24,-0.08,0.13,0.27,
1.439,0.60,0.68,-0.04,-0.08,0.13,0.27,
1.44,0.60,0.68,-0.04,-0.10,0.11,0.28,
1.458,0.60,0.68,-0.04,-0.13,0.10,0.29,
1.458,0.60,0.68,-0.04,-0.16,0.08,0.30,
1.459,0.60,0.68,-0.04,-0.19,0.06,0.31,
1.459,0.60,0.68,-0.04,-0.22,0.04,0.32,
1.459,0.54,0.81,-0.19,-0.22,0.04,0.32,
1.459,0.54,0.81,-0.19,-0.26,0.02,0.32,
1.46,0.54,0.81,-0.19,-0.30,0.01,0.33,
1.46,0.54,0.81,-0.19,-0.33,-0.00,0.34,
1.46,0.54,0.81,-0.19,-0.37,-0.01,0.34,
1.46,0.54,0.81,-0.19,-0.40,-0.02,0.35,
1.46,0.57,0.97,0.08,-0.40,-0.02,0.35,
1.461,0.57,0.97,0.08,-0.44,-0.02,0.35,
1.461,0.57,0.97,0.08,-0.47,-0.03,0.35,
1.465,0.57,0.97,0.08,-0.50,-0.03,0.36,
1.466,0.57,0.97,0.08,-0.53,-0.03,0.36,
1.47,0.57,0.97,0.08,-0.56,-0.03,0.36,
1.47,0.71,1.01,0.74,-0.56,-0.03,0.36,
1.471,0.71,1.01,0.74,-0.59,-0.02,0.36,
1.471,0.71,1.01,0.74,-0.61,-0.02,0.37,
1.473,0.71,1.01,0.74,-0.63,-0.01,0.37,
1.474,0.71,1.01,0.74,-0.65,-0.01,0.37,
1.477,0.71,1.01,0.74,-0.67,0.00,0.37,
1.48,0.98,1.12,1.52,-0.67,0.00,0.37,
1.48,0.98,1.12,1.52,-0.68,0.01,0.36,
1.482,0.98,1.12,1.52,-0.69,0.01,0.36,
1.483,0.98,1.12,1.52,-0.70,0.02,0.35,
1.486,0.98,1.12,1.52,-0.71,0.03,0.34,
1.487,0.98,1.12,1.52,-0.72,0.04,0.33,
1.489,1.25,1.30,2.19,-0.72,0.04,0.33,
1.489,1.25,1.30,2.19,-0.73,0.04,0.32,
1.491,1.25,1.30,2.19,-0.74,0.05,0.31,
1.492,1.25,1.30,2.19,-0.75,0.05,0.30,
1.494,1.25,1.30,2.19,-0.76,0.05,0.28,
1.497,1.25,1.30,2.19,-0.77,0.04,0.27,
1.5,1.42,1.44,2.49,-0.77,0.04,0.27,
1.5,1.42,1.44,2.49,-0.78,0.03,0.25,
1.501,1.42,1.44,2.49,-0.79,0.01,0.24,
1.503,1.42,1.44,2.49,-0.80,-0.00,0.22,
1.504,1.42,1.44,2.49,-0.82,-0.02,0.20,
1.506,1.42,1.44,2.49,-0.84,-0.05,0.19,
1.509,1.46,1.56,2.62,-0.84,-0.05,0.19,
1.509,1.46,1.56,2.62,-0.86,-0.08,0.17,
1.511,1.46,1.56,2.62,-0.88,-0.11,0.16,
1.515,1.46,1.56,2.62,-0.90,-0.15,0.14,
1.516,1.46,1.56,2.62,-0.93,-0.18,0.12,
1.517,1.46,1.56,2.62,-0.96,-0.23,0.10,
1.519,1.61,1.60,2.78,-0.96,-0.23,0.10,
1.52,1.61,1.60,2.78,-0.98,-0.27,0.08,
1.521,1.61,1.60,2.78,-1.01,-0.31,0.06,
1.523,1.61,1.60,2.78,-1.04,-0.35,0.04,
1.525,1.61,1.60,2.78,-1.07,-0.38,0.02,
1.527,1.61,1.60,2.78,-1.10,-0.42,0.01,
1.534,1.71,1.57,3.31,-1.10,-0.42,0.01,
1.534,1.71,1.57,3.31,-1.13,-0.46,-0.02,
1.535,1.71,1.57,3.31,-1.16,-0.49,-0.04,
1.535,1.71,1.57,3.31,-1.18,-0.51,-0.05,
1.535,1.71,1.57,3.31,-1.20,-0.54,-0.07,
1.536,1.71,1.57,3.31,-1.22,-0.55,-0.09,
1.539,1.94,1.38,4.39,-1.22,-0.55,-0.09,
1.539,1.94,1.38,4.39,-1.24,-0.56,-0.11,
1.541,1.94,1.38,4.39,-1.25,-0.57,-0.12,
1.543,1.94,1.38,4.39,-1.25,-0.56,-0.14,
1.545,1.94,1.38,4.39,-1.25,-0.55,-0.15,
1.547,1.94,1.38,4.39,-1.25,-0.53,-0.16,
1.55,2.00,0.93,5.85,-1.25,-0.53,-0.16,
1.55,2.00,0.93,5.85,-1.24,-0.50,-0.17,
1.551,2.00,0.93,5.85,-1.22,-0.45,-0.17,
1.553,2.00,0.93,5.85,-1.20,-0.40,-0.17,
1.555,2.00,0.93,5.85,-1.17,-0.33,-0.17,
1.557,2.00,0.93,5.85,-1.14,-0.26,-0.17,
1.559,1.77,0.38,7.31,-1.14,-0.26,-0.17,
1.56,1.77,0.38,7.31,-1.10,-0.17,-0.16,
1.561,1.77,0.38,7.31,-1.06,-0.06,-0.14,
1.563,1.77,0.38,7.31,-1.01,0.05,-0.13,
1.565,1.77,0.38,7.31,-0.95,0.17,-0.11,
1.567,1.77,0.38,7.31,-0.89,0.30,-0.09,
1.569,1.29,0.03,8.12,-0.89,0.30,-0.09,
1.57,1.29,0.03,8.12,-0.83,0.42,-0.08,
1.571,1.29,0.03,8.12,-0.77,0.55,-0.06,
1.573,1.29,0.03,8.12,-0.71,0.67,-0.05,
1.574,1.29,0.03,8.12,-0.64,0.78,-0.03,
1.577,1.29,0.03,8.12,-0.57,0.89,-0.01,
1.579,1.01,-0.42,7.99,-0.57,0.89,-0.01,
1.58,1.01,-0.42,7.99,-0.51,0.98,0.00,
1.582,1.01,-0.42,7.99,-0.44,1.07,0.02,
1.583,1.01,-0.42,7.99,-0.37,1.15,0.04,
1.585,1.01,-0.42,7.99,-0.30,1.22,0.06,
1.587,1.01,-0.42,7.99,-0.24,1.29,0.08,
1.589,0.63,-0.57,6.97,-0.24,1.29,0.08,
1.59,0.63,-0.57,6.97,-0.17,1.34,0.11,
1.591,0.63,-0.57,6.97,-0.11,1.38,0.13,
1.593,0.63,-0.57,6.97,-0.05,1.41,0.15,
1.595,0.63,-0.57,6.97,0.00,1.42,0.18,
1.597,0.63,-0.57,6.97,0.05,1.43,0.20,
1.6,0.34,-0.59,5.38,0.05,1.43,0.20,
1.6,0.34,-0.59,5.38,0.10,1.42,0.22,
1.601,0.34,-0.59,5.38,0.15,1.39,0.23,
1.603,0.34,-0.59,5.38,0.19,1.36,0.25,
1.605,0.34,-0.59,5.38,0.23,1.31,0.26,
1.607,0.34,-0.59,5.38,0.28,1.26,0.27,
1.635,0.63,-0.49,3.81,0.28,1.26,0.27,
1.636,0.63,-0.49,3.81,0.31,1.20,0.27,
1.636,0.63,-0.49,3.81,0.35,1.13,0.27,
1.637,0.63,-0.49,3.81,0.39,1.05,0.27,
1.637,0.63,-0.49,3.81,0.43,0.98,0.27,
1.638,0.63,-0.49,3.81,0.46,0.90,0.27,
1.638,1.16,-0.36,2.54,0.46,0.90,0.27,
1.638,1.16,-0.36,2.54,0.50,0.82,0.26,
1.639,1.16,-0.36,2.54,0.53,0.73,0.25,
1.639,1.16,-0.36,2.54,0.56,0.65,0.23,
1.64,1.16,-0.36,2.54,0.59,0.56,0.22,
1.64,1.16,-0.36,2.54,0.61,0.47,0.20,
1.64,1.53,-0.15,1.42,0.61,0.47,0.20,
1.641,1.53,-0.15,1.42,0.63,0.39,0.18,
1.641,1.53,-0.15,1.42,0.65,0.31,0.16,
1.642,1.53,-0.15,1.42,0.67,0.23,0.14,
1.642,1.53,-0.15,1.42,0.68,0.15,0.12,
1.642,1.53,-0.15,1.42,0.69,0.08,0.09,
1.643,1.91,-0.04,0.33,0.69,0.08,0.09,
1.643,1.91,-0.04,0.33,0.70,0.01,0.07,
1.644,1.91,-0.04,0.33,0.70,-0.06,0.05,
1.644,1.91,-0.04,0.33,0.70,-0.13,0.03,
1.645,1.91,-0.04,0.33,0.70,-0.19,0.02,
1.655,1.91,-0.04,0.33,0.70,-0.24,0.00,
1.655,1.68,-0.06,-0.60,0.70,-0.24,0.00,
1.655,1.68,-0.06,-0.60,0.70,-0.29,-0.01,
1.656,1.68,-0.06,-0.60,0.69,-0.33,-0.02,
1.658,1.68,-0.06,-0.60,0.68,-0.37,-0.03,
1.659,1.68,-0.06,-0.60,0.67,-0.40,-0.04,
1.659,1.68,-0.06,-0.60,0.66,-0.42,-0.05,
1.659,1.53,-0.13,-1.35,0.66,-0.42,-0.05,
1.659,1.53,-0.13,-1.35,0.65,-0.44,-0.06,
1.661,1.53,-0.13,-1.35,0.63,-0.46,-0.07,
1.662,1.53,-0.13,-1.35,0.61,-0.47,-0.08,
1.665,1.53,-0.13,-1.35,0.59,-0.47,-0.09,
1.667,1.53,-0.13,-1.35,0.57,-0.48,-0.10,
1.669,1.43,-0.31,-1.81,0.57,-0.48,-0.10,
1.669,1.43,-0.31,-1.81,0.55,-0.47,-0.11,
1.671,1.43,-0.31,-1.81,0.53,-0.46,-0.11,
1.673,1.43,-0.31,-1.81,0.51,-0.45,-0.12,
1.675,1.43,-0.31,-1.81,0.48,-0.43,-0.12,
1.677,1.43,-0.31,-1.81,0.46,-0.41,-0.13,
1.688,1.33,-0.38,-2.09,0.46,-0.41,-0.13,
1.689,1.33,-0.38,-2.09,0.43,-0.39,-0.13,
1.689,1.33,-0.38,-2.09,0.41,-0.36,-0.14,
1.689,1.33,-0.38,-2.09,0.38,-0.33,-0.14,
1.69,1.33,-0.38,-2.09,0.35,-0.31,-0.15,
1.69,1.33,-0.38,-2.09,0.32,-0.29,-0.16,
1.69,1.41,-0.47,-2.49,0.32,-0.29,-0.16,
1.69,1.41,-0.47,-2.49,0.29,-0.27,-0.17,
1.691,1.41,-0.47,-2.49,0.25,-0.25,-0.18,
1.723,1.41,-0.47,-2.49,0.22,-0.22,-0.20,
1.723,1.41,-0.47,-2.49,0.18,-0.20,-0.22,
1.723,1.41,-0.47,-2.49,0.15,-0.18,-0.24,
1.724,1.58,-0.36,-2.84,0.15,-0.18,-0.24,
1.724,1.58,-0.36,-2.84,0.11,-0.16,-0.25,
1.724,1.58,-0.36,-2.84,0.08,-0.14,-0.27,
1.724,1.58,-0.36,-2.84,0.05,-0.11,-0.29,
1.724,1.58,-0.36,-2.84,0.01,-0.09,-0.31,
1.725,1.58,-0.36,-2.84,-0.02,-0.06,-0.33,
1.725,1.53,-0.20,-2.86,-0.02,-0.06,-0.33,
1.725,1.53,-0.20,-2.86,-0.05,-0.04,-0.35,
1.725,1.53,-0.20,-2.86,-0.08,-0.01,-0.37,
1.725,1.53,-0.20,-2.86,-0.10,0.02,-0.38,
1.726,1.53,-0.20,-2.86,-0.13,0.05,-0.40,
1.726,1.53,-0.20,-2.86,-0.15,0.07,-0.42,
1.726,1.55,-0.12,-2.73,-0.15,0.07,-0.42,
1.726,1.55,-0.12,-2.73,-0.18,0.10,-0.44,
1.726,1.55,-0.12,-2.73,-0.20,0.12,-0.46,
1.726,1.55,-0.12,-2.73,-0.21,0.14,-0.48,
1.727,1.55,-0.12,-2.73,-0.23,0.16,-0.49,
1.727,1.55,-0.12,-2.73,-0.24,0.18,-0.51,
1.735,1.38,-0.19,-2.39,-0.24,0.18,-0.51,
1.736,1.38,-0.19,-2.39,-0.25,0.21,-0.52,
1.736,1.38,-0.19,-2.39,-0.26,0.23,-0.53,
1.736,1.38,-0.19,-2.39,-0.26,0.25,-0.54,
1.737,1.38,-0.19,-2.39,-0.26,0.28,-0.55,
1.737,1.38,-0.19,-2.39,-0.26,0.30,-0.55,
1.74,1.12,-0.24,-2.08,-0.26,0.30,-0.55,
1.741,1.12,-0.24,-2.08,-0.26,0.31,-0.56,
1.742,1.12,-0.24,-2.08,-0.26,0.33,-0.56,
1.744,1.12,-0.24,-2.08,-0.26,0.34,-0.56,
1.747,1.12,-0.24,-2.08,-0.26,0.35,-0.56,
1.747,1.12,-0.24,-2.08,-0.26,0.36,-0.55,
1.755,0.84,-0.47,-2.08,-0.26,0.36,-0.55,
1.757,0.84,-0.47,-2.08,-0.26,0.37,-0.55,
1.758,0.84,-0.47,-2.08,-0.26,0.37,-0.54,
1.758,0.84,-0.47,-2.08,-0.26,0.37,-0.54,
1.759,0.84,-0.47,-2.08,-0.26,0.38,-0.53,
1.76,0.84,-0.47,-2.08,-0.26,0.38,-0.52,
1.76,0.63,-0.61,-2.34,-0.26,0.38,-0.52,
1.761,0.63,-0.61,-2.34,-0.26,0.38,-0.51,
1.761,0.63,-0.61,-2.34,-0.26,0.38,-0.50,
1.77,0.63,-0.61,-2.34,-0.26,0.37,-0.49,
1.775,0.63,-0.61,-2.34,-0.26,0.37,-0.48,
1.775,0.63,-0.61,-2.34,-0.26,0.36,-0.47,
1.776,0.39,-0.69,-2.63,-0.26,0.36,-0.47,
1.777,0.39,-0.69,-2.63,-0.26,0.36,-0.46,
1.778,0.39,-0.69,-2.63,-0.26,0.34,-0.43,
1.778,0.39,-0.69,-2.63,-0.26,0.34,-0.43,
1.808,0.39,-0.69,-2.63,-0.26,0.33,-0.42,
1.809,0.39,-0.69,-2.63,-0.26,0.32,-0.41,
1.809,0.51,-0.81,-2.87,-0.26,0.32,-0.41,
1.81,0.51,-0.81,-2.87,-0.25,0.31,-0.40,
1.81,0.51,-0.81,-2.87,-0.25,0.29,-0.39,
1.81,0.51,-0.81,-2.87,-0.25,0.28,-0.38,
1.811,0.51,-0.81,-2.87,-0.25,0.26,-0.37,
1.811,0.51,-0.81,-2.87,-0.25,0.24,-0.36,
1.812,0.63,-0.90,-3.11,-0.25,0.24,-0.36,
1.812,0.63,-0.90,-3.11,-0.25,0.23,-0.35,
1.812,0.63,-0.90,-3.11,-0.25,0.21,-0.35,
1.813,0.63,-0.90,-3.11,-0.24,0.19,-0.34,
1.813,0.63,-0.90,-3.11,-0.25,0.17,-0.34,
1.814,0.63,-0.90,-3.11,-0.25,0.15,-0.33,
1.814,0.89,-0.93,-3.36,-0.25,0.15,-0.33,
1.814,0.89,-0.93,-3.36,-0.25,0.13,-0.33,
1.815,0.89,-0.93,-3.36,-0.25,0.11,-0.33,
1.815,0.89,-0.93,-3.36,-0.26,0.10,-0.33,
1.816,0.89,-0.93,-3.36,-0.26,0.08,-0.33,
1.816,0.89,-0.93,-3.36,-0.27,0.07,-0.33,
1.816,1.05,-0.97,-3.53,-0.27,0.07,-0.33,
1.817,1.05,-0.97,-3.53,-0.27,0.05,-0.33,
1.817,1.05,-0.97,-3.53,-0.27,0.03,-0.33,
1.818,1.05,-0.97,-3.53,-0.28,0.02,-0.34,
1.818,1.05,-0.97,-3.53,-0.28,0.00,-0.34,
1.819,1.05,-0.97,-3.53,-0.28,-0.01,-0.34,
1.819,1.37,-0.93,-3.45,-0.28,-0.01,-0.34,
1.819,1.37,-0.93,-3.45,-0.28,-0.01,-0.35,
1.831,1.37,-0.93,-3.45,-0.28,-0.02,-0.35,
1.832,1.37,-0.93,-3.45,-0.28,-0.02,-0.36,
1.832,1.37,-0.93,-3.45,-0.27,-0.01,-0.37,
1.832,1.37,-0.93,-3.45,-0.27,-0.01,-0.37,
1.832,1.34,-0.81,-3.20,-0.27,-0.01,-0.37,
1.832,1.34,-0.81,-3.20,-0.26,0.00,-0.37,
1.833,1.34,-0.81,-3.20,-0.26,0.01,-0.38,
1.833,1.34,-0.81,-3.20,-0.25,0.01,-0.38,
1.837,1.34,-0.81,-3.20,-0.24,0.01,-0.39,
1.838,1.34,-0.81,-3.20,-0.23,0.02,-0.39,
1.841,1.50,-0.74,-2.91,-0.23,0.02,-0.39,
1.842,1.50,-0.74,-2.91,-0.22,0.03,-0.39,
1.842,1.50,-0.74,-2.91,-0.21,0.04,-0.40,
1.843,1.50,-0.74,-2.91,-0.20,0.05,-0.40,
1.846,1.50,-0.74,-2.91,-0.18,0.06,-0.40,
1.855,1.50,-0.74,-2.91,-0.17,0.07,-0.41,
1.855,1.40,-0.60,-2.74,-0.17,0.07,-0.41,
1.855,1.40,-0.60,-2.74,-0.15,0.09,-0.41,
1.856,1.40,-0.60,-2.74,-0.14,0.10,-0.41,
1.856,1.40,-0.60,-2.74,-0.12,0.11,-0.41,
1.856,1.40,-0.60,-2.74,-0.10,0.12,-0.41,
1.857,1.40,-0.60,-2.74,-0.09,0.13,-0.41,
1.892,1.29,-0.46,-2.68,-0.09,0.13,-0.41,
1.894,1.29,-0.46,-2.68,-0.07,0.14,-0.41,
1.894,1.29,-0.46,-2.68,-0.05,0.14,-0.40,
1.894,1.29,-0.46,-2.68,-0.04,0.15,-0.40,
1.895,1.29,-0.46,-2.68,-0.03,0.15,-0.39,
1.895,1.29,-0.46,-2.68,-0.02,0.14,-0.38,
1.896,0.99,-0.44,-2.80,-0.02,0.14,-0.38,
1.896,0.99,-0.44,-2.80,-0.01,0.14,-0.37,
1.898,0.99,-0.44,-2.80,0.00,0.14,-0.36,
1.898,0.99,-0.44,-2.80,0.01,0.13,-0.35,
1.898,0.99,-0.44,-2.80,0.01,0.12,-0.34,
1.898,0.99,-0.44,-2.80,0.02,0.12,-0.33,
1.898,0.86,-0.37,-2.93,0.02,0.12,-0.33,
1.899,0.86,-0.37,-2.93,0.03,0.11,-0.32,
1.899,0.86,-0.37,-2.93,0.04,0.11,-0.31,
1.899,0.86,-0.37,-2.93,0.04,0.10,-0.30,
1.899,0.86,-0.37,-2.93,0.05,0.10,-0.29,
1.899,0.86,-0.37,-2.93,0.05,0.10,-0.28,
1.9,0.78,-0.30,-2.94,0.05,0.10,-0.28,
1.9,0.78,-0.30,-2.94,0.06,0.10,-0.28,
1.9,0.78,-0.30,-2.94,0.07,0.10,-0.27,
1.9,0.78,-0.30,-2.94,0.08,0.10,-0.26,
1.9,0.78,-0.30,-2.94,0.09,0.10,-0.26,
1.9,0.78,-0.30,-2.94,0.11,0.10,-0.25,
1.901,0.94,-0.19,-2.77,0.11,0.10,-0.25,
1.901,0.94,-0.19,-2.77,0.12,0.10,-0.25,
1.906,0.94,-0.19,-2.77,0.14,0.10,-0.24,
1.907,0.94,-0.19,-2.77,0.16,0.10,-0.24,
1.907,0.94,-0.19,-2.77,0.18,0.10,-0.24,
1.907,0.94,-0.19,-2.77,0.20,0.09,-0.23,
1.911,0.91,-0.08,-2.68,0.20,0.09,-0.23,
1.911,0.91,-0.08,-2.68,0.22,0.09,-0.23,
1.911,0.91,-0.08,-2.68,0.24,0.08,-0.22,
1.923,0.91,-0.08,-2.68,0.26,0.07,-0.22,
1.924,0.91,-0.08,-2.68,0.27,0.05,-0.21,
1.924,0.91,-0.08,-2.68,0.29,0.04,-0.21,
1.924,0.94,0.02,-2.88,0.29,0.04,-0.21,
1.924,0.94,0.02,-2.88,0.30,0.02,-0.21,
1.924,0.94,0.02,-2.88,0.31,0.00,-0.20,
1.925,0.94,0.02,-2.88,0.32,-0.02,-0.20,
1.925,0.94,0.02,-2.88,0.33,-0.04,-0.20,
1.946,0.94,0.02,-2.88,0.34,-0.06,-0.20,
1.946,0.90,0.03,-3.14,0.34,-0.06,-0.20,
1.946,0.90,0.03,-3.14,0.34,-0.07,-0.20,
1.947,0.90,0.03,-3.14,0.35,-0.09,-0.20,
1.947,0.90,0.03,-3.14,0.36,-0.10,-0.20,
1.947,0.90,0.03,-3.14,0.37,-0.11,-0.20,
1.947,0.90,0.03,-3.14,0.38,-0.11,-0.20,
1.947,0.98,0.14,-2.95,0.38,-0.11,-0.20,
1.948,0.98,0.14,-2.95,0.39,-0.10,-0.21,
1.967,0.98,0.14,-2.95,0.41,-0.09,-0.21,
1.967,0.98,0.14,-2.95,0.42,-0.07,-0.21,
1.967,0.98,0.14,-2.95,0.44,-0.05,-0.21,
1.968,0.98,0.14,-2.95,0.46,-0.02,-0.22,
1.968,1.03,0.18,-2.62,0.46,-0.02,-0.22,
1.968,1.03,0.18,-2.62,0.47,0.01,-0.22,
1.968,1.03,0.18,-2.62,0.49,0.04,-0.23,
1.969,1.03,0.18,-2.62,0.51,0.07,-0.23,
1.969,1.03,0.18,-2.62,0.52,0.10,-0.24,
1.969,1.03,0.18,-2.62,0.53,0.13,-0.24,
1.969,1.00,0.20,-2.63,0.53,0.13,-0.24,
1.97,1.00,0.20,-2.63,0.54,0.16,-0.24,
1.97,1.00,0.20,-2.63,0.55,0.20,-0.24,
1.97,1.00,0.20,-2.63,0.55,0.23,-0.24,
1.971,1.00,0.20,-2.63,0.56,0.26,-0.24,
1.971,1.00,0.20,-2.63,0.57,0.30,-0.23,
1.971,0.42,0.20,-2.86,0.57,0.30,-0.23,
1.971,0.42,0.20,-2.86,0.57,0.33,-0.22,
1.972,0.42,0.20,-2.86,0.58,0.36,-0.20,
1.977,0.42,0.20,-2.86,0.59,0.38,-0.18,
1.978,0.42,0.20,-2.86,0.60,0.39,-0.15,
1.979,0.42,0.20,-2.86,0.62,0.39,-0.11,
1.979,-0.83,0.16,-3.08,0.62,0.39,-0.11,
1.979,-0.83,0.16,-3.08,0.63,0.38,-0.06,
1.982,-0.83,0.16,-3.08,0.63,0.35,-0.01,
1.983,-0.83,0.16,-3.08,0.64,0.30,0.05,
1.985,-0.83,0.16,-3.08,0.64,0.23,0.12,
1.987,-0.83,0.16,-3.08,0.64,0.15,0.19,
1.99,-2.22,0.11,-3.58,0.64,0.15,0.19,
1.99,-2.22,0.11,-3.58,0.63,0.05,0.26,
1.991,-2.22,0.11,-3.58,0.62,-0.07,0.33,
1.993,-2.22,0.11,-3.58,0.61,-0.19,0.40,
1.995,-2.22,0.11,-3.58,0.60,-0.32,0.47,
1.998,-2.22,0.11,-3.58,0.60,-0.46,0.54,
2.0,-2.10,0.27,-3.60,0.60,-0.46,0.54,
2.0,-2.10,0.27,-3.60,0.59,-0.58,0.59,
2.006,-2.10,0.27,-3.60,0.60,-0.71,0.64,
2.012,-2.10,0.27,-3.60,0.61,-0.82,0.68,
2.013,-2.10,0.27,-3.60,0.62,-0.93,0.71,
2.015,-2.10,0.27,-3.60,0.64,-1.03,0.73,
2.015,-0.47,0.70,-2.34,0.64,-1.03,0.73,
2.015,-0.47,0.70,-2.34,0.67,-1.12,0.75,
2.016,-0.47,0.70,-2.34,0.70,-1.19,0.75,
2.017,-0.47,0.70,-2.34,0.73,-1.26,0.75,
2.017,-0.47,0.70,-2.34,0.76,-1.32,0.75,
2.017,-0.47,0.70,-2.34,0.79,-1.35,0.75,
2.019,1.20,1.23,-0.65,0.79,-1.35,0.75,
2.02,1.20,1.23,-0.65,0.82,-1.36,0.74,
2.021,1.20,1.23,-0.65,0.85,-1.36,0.74,
2.023,1.20,1.23,-0.65,0.88,-1.34,0.73,
2.025,1.20,1.23,-0.65,0.90,-1.29,0.72,
2.03,1.20,1.23,-0.65,0.92,-1.23,0.71,
2.03,2.10,1.60,0.24,0.92,-1.23,0.71,
2.03,2.10,1.60,0.24,0.93,-1.16,0.70,
2.031,2.10,1.60,0.24,0.94,-1.08,0.69,
2.033,2.10,1.60,0.24,0.94,-0.99,0.67,
2.035,2.10,1.60,0.24,0.94,-0.90,0.66,
2.037,2.10,1.60,0.24,0.93,-0.82,0.65,
2.039,2.66,1.79,0.16,0.93,-0.82,0.65,
2.04,2.66,1.79,0.16,0.91,-0.74,0.63,
2.041,2.66,1.79,0.16,0.89,-0.67,0.61,
2.043,2.66,1.79,0.16,0.87,-0.60,0.59,
2.047,2.66,1.79,0.16,0.84,-0.55,0.57,
2.049,2.66,1.79,0.16,0.81,-0.51,0.55,
2.05,2.76,2.01,-0.07,0.81,-0.51,0.55,
2.05,2.76,2.01,-0.07,0.79,-0.48,0.53,
2.052,2.76,2.01,-0.07,0.76,-0.47,0.50,
2.053,2.76,2.01,-0.07,0.74,-0.46,0.48,
2.055,2.76,2.01,-0.07,0.72,-0.46,0.46,
2.057,2.76,2.01,-0.07,0.70,-0.46,0.44,
2.059,2.65,2.39,0.33,0.70,-0.46,0.44,
2.059,2.65,2.39,0.33,0.69,-0.48,0.42,
2.066,2.65,2.39,0.33,0.68,-0.49,0.40,
2.067,2.65,2.39,0.33,0.67,-0.51,0.39,
2.067,2.65,2.39,0.33,0.67,-0.54,0.38,
2.068,2.65,2.39,0.33,0.67,-0.57,0.36,
2.07,2.14,2.78,1.12,0.67,-0.57,0.36,
2.07,2.14,2.78,1.12,0.67,-0.60,0.35,
2.071,2.14,2.78,1.12,0.67,-0.63,0.35,
2.072,2.14,2.78,1.12,0.67,-0.66,0.34,
2.074,2.14,2.78,1.12,0.67,-0.69,0.34,
2.087,2.14,2.78,1.12,0.68,-0.73,0.33,
2.127,1.54,3.14,1.93,0.68,-0.73,0.33,
2.128,1.54,3.14,1.93,0.68,-0.75,0.34,
2.129,1.54,3.14,1.93,0.69,-0.78,0.34,
2.129,1.54,3.14,1.93,0.69,-0.80,0.35,
2.13,1.54,3.14,1.93,0.70,-0.82,0.36,
2.13,1.54,3.14,1.93,0.70,-0.83,0.37,
2.131,1.12,3.40,2.49,0.70,-0.83,0.37,
2.131,1.12,3.40,2.49,0.70,-0.84,0.38,
2.132,1.12,3.40,2.49,0.70,-0.84,0.39,
2.132,1.12,3.40,2.49,0.70,-0.84,0.40,
2.133,1.12,3.40,2.49,0.69,-0.84,0.42,
2.133,1.12,3.40,2.49,0.68,-0.84,0.43,
2.134,1.07,3.57,2.64,0.68,-0.84,0.43,
2.134,1.07,3.57,2.64,0.67,-0.83,0.44,
2.135,1.07,3.57,2.64,0.65,-0.83,0.46,
2.135,1.07,3.57,2.64,0.63,-0.82,0.47,
2.136,1.07,3.57,2.64,0.61,-0.81,0.48,
2.136,1.07,3.57,2.64,0.59,-0.81,0.50,
2.164,1.08,3.81,2.55,0.59,-0.81,0.50,
2.164,1.08,3.81,2.55,0.56,-0.80,0.51,
2.165,1.08,3.81,2.55,0.52,-0.78,0.51,
2.165,1.08,3.81,2.55,0.49,-0.76,0.52,
2.166,1.08,3.81,2.55,0.45,-0.74,0.52,
2.166,1.08,3.81,2.55,0.40,-0.72,0.52,
2.166,1.50,4.31,2.31,0.40,-0.72,0.52,
2.167,1.50,4.31,2.31,0.36,-0.69,0.52,
2.167,1.50,4.31,2.31,0.31,-0.66,0.51,
2.168,1.50,4.31,2.31,0.26,-0.63,0.51,
2.168,1.50,4.31,2.31,0.21,-0.59,0.50,
2.168,1.50,4.31,2.31,0.15,-0.55,0.49,
2.169,2.14,4.61,2.20,0.15,-0.55,0.49,
2.169,2.14,4.61,2.20,0.09,-0.51,0.47,
2.17,2.14,4.61,2.20,0.04,-0.48,0.46,
2.17,2.14,4.61,2.20,-0.02,-0.44,0.44,
2.171,2.14,4.61,2.20,-0.08,-0.40,0.42,
2.171,2.14,4.61,2.20,-0.14,-0.36,0.40,
2.171,2.76,4.82,2.35,-0.14,-0.36,0.40,
2.172,2.76,4.82,2.35,-0.20,-0.32,0.38,
2.172,2.76,4.82,2.35,-0.26,-0.28,0.35,
2.173,2.76,4.82,2.35,-0.32,-0.24,0.33,
2.173,2.76,4.82,2.35,-0.37,-0.20,0.30,
2.174,2.76,4.82,2.35,-0.43,-0.16,0.27,
2.174,3.13,4.78,2.83,-0.43,-0.16,0.27,
2.174,3.13,4.78,2.83,-0.48,-0.12,0.25,
2.175,3.13,4.78,2.83,-0.53,-0.08,0.22,
2.175,3.13,4.78,2.83,-0.58,-0.03,0.19,
2.176,3.13,4.78,2.83,-0.63,0.02,0.16,
2.176,3.13,4.78,2.83,-0.67,0.07,0.14,
2.176,3.18,4.63,3.62,-0.67,0.07,0.14,
2.177,3.18,4.63,3.62,-0.71,0.12,0.11,
2.177,3.18,4.63,3.62,-0.74,0.17,0.08,
2.178,3.18,4.63,3.62,-0.78,0.22,0.06,
2.178,3.18,4.63,3.62,-0.80,0.27,0.04,
2.178,3.18,4.63,3.62,-0.83,0.32,0.01,
2.179,2.84,4.22,4.49,-0.83,0.32,0.01,
2.179,2.84,4.22,4.49,-0.85,0.37,-0.02,
2.18,2.84,4.22,4.49,-0.87,0.42,-0.04,
2.18,2.84,4.22,4.49,-0.89,0.47,-0.06,
2.18,2.84,4.22,4.49,-0.91,0.51,-0.08,
2.181,2.84,4.22,4.49,-0.93,0.56,-0.10,
2.181,2.32,3.71,4.91,-0.93,0.56,-0.10,
2.182,2.32,3.71,4.91,-0.94,0.60,-0.12,
2.182,2.32,3.71,4.91,-0.96,0.63,-0.14,
2.193,2.32,3.71,4.91,-0.97,0.66,-0.15,
2.194,2.32,3.71,4.91,-0.99,0.69,-0.16,
2.195,2.32,3.71,4.91,-1.00,0.72,-0.18,
2.195,1.44,3.07,5.08,-1.00,0.72,-0.18,
2.195,1.44,3.07,5.08,-1.01,0.74,-0.19,
2.196,1.44,3.07,5.08,-1.02,0.76,-0.19,
2.196,1.44,3.07,5.08,-1.02,0.76,-0.20,
2.196,1.44,3.07,5.08,-1.03,0.78,-0.20,
2.198,1.44,3.07,5.08,-1.03,0.78,-0.19,
2.201,0.55,2.27,5.23,-1.03,0.78,-0.19,
2.201,0.55,2.27,5.23,-1.03,0.78,-0.19,
2.201,0.55,2.27,5.23,-1.03,0.79,-0.18,
2.206,0.55,2.27,5.23,-1.03,0.79,-0.17,
2.206,0.55,2.27,5.23,-1.02,0.79,-0.16,
2.208,0.55,2.27,5.23,-1.01,0.79,-0.15,
2.21,-0.13,1.52,5.46,-1.01,0.79,-0.15,
2.21,-0.13,1.52,5.46,-1.00,0.79,-0.13,
2.216,-0.13,1.52,5.46,-0.98,0.79,-0.12,
2.216,-0.13,1.52,5.46,-0.96,0.78,-0.11,
2.217,-0.13,1.52,5.46,-0.93,0.78,-0.09,
2.218,-0.13,1.52,5.46,-0.91,0.78,-0.08,
2.221,-0.35,0.82,5.71,-0.91,0.78,-0.08,
2.222,-0.35,0.82,5.71,-0.88,0.79,-0.06,
2.222,-0.35,0.82,5.71,-0.85,0.79,-0.05,
2.226,-0.35,0.82,5.71,-0.81,0.79,-0.03,
2.226,-0.35,0.82,5.71,-0.77,0.79,-0.01,
2.237,-0.35,0.82,5.71,-0.73,0.79,0.00,
2.237,-0.60,0.29,5.82,-0.73,0.79,0.00,
2.238,-0.60,0.29,5.82,-0.68,0.80,0.02,
2.238,-0.60,0.29,5.82,-0.64,0.80,0.04,
2.238,-0.60,0.29,5.82,-0.58,0.80,0.06,
2.238,-0.60,0.29,5.82,-0.53,0.80,0.08,
2.266,-0.60,0.29,5.82,-0.47,0.80,0.10,
2.267,-0.84,-0.21,5.79,-0.47,0.80,0.10,
2.267,-0.84,-0.21,5.79,-0.41,0.80,0.12,
2.267,-0.84,-0.21,5.79,-0.35,0.80,0.14,
2.267,-0.84,-0.21,5.79,-0.28,0.80,0.17,
2.268,-0.84,-0.21,5.79,-0.22,0.79,0.19,
2.268,-0.84,-0.21,5.79,-0.16,0.78,0.21,
2.268,-0.91,-0.55,5.36,-0.16,0.78,0.21,
2.268,-0.91,-0.55,5.36,-0.09,0.77,0.23,
2.268,-0.91,-0.55,5.36,-0.03,0.76,0.25,
2.269,-0.91,-0.55,5.36,0.04,0.75,0.27,
2.269,-0.91,-0.55,5.36,0.10,0.73,0.28,
2.269,-0.91,-0.55,5.36,0.16,0.72,0.30,
2.269,-0.77,-0.90,4.58,0.16,0.72,0.30,
2.269,-0.77,-0.90,4.58,0.22,0.70,0.31,
2.27,-0.77,-0.90,4.58,0.27,0.68,0.33,
2.27,-0.77,-0.90,4.58,0.33,0.67,0.34,
2.27,-0.77,-0.90,4.58,0.38,0.65,0.35,
2.27,-0.77,-0.90,4.58,0.42,0.63,0.36,
2.27,-0.73,-1.11,3.34,0.42,0.63,0.36,
2.271,-0.73,-1.11,3.34,0.46,0.61,0.37,
2.271,-0.73,-1.11,3.34,0.50,0.59,0.38,
2.276,-0.73,-1.11,3.34,0.53,0.57,0.38,
2.294,-0.73,-1.11,3.34,0.55,0.54,0.39,
2.294,-0.73,-1.11,3.34,0.57,0.52,0.40,
2.294,-0.70,-1.28,2.04,0.57,0.52,0.40,
2.294,-0.70,-1.28,2.04,0.59,0.50,0.41,
2.294,-0.70,-1.28,2.04,0.60,0.47,0.41,
2.295,-0.70,-1.28,2.04,0.61,0.45,0.41,
2.295,-0.70,-1.28,2.04,0.61,0.43,0.41,
2.295,-0.70,-1.28,2.04,0.60,0.41,0.42,
2.295,-0.64,-1.46,0.83,0.60,0.41,0.42,
2.295,-0.64,-1.46,0.83,0.60,0.40,0.42,
2.296,-0.64,-1.46,0.83,0.59,0.39,0.41,
2.296,-0.64,-1.46,0.83,0.58,0.39,0.41,
2.296,-0.64,-1.46,0.83,0.57,0.40,0.42,
2.298,-0.64,-1.46,0.83,0.55,0.40,0.42,
2.3,-0.64,-1.56,0.19,0.55,0.40,0.42,
2.301,-0.64,-1.56,0.19,0.53,0.39,0.42,
2.301,-0.64,-1.56,0.19,0.50,0.39,0.42,
2.303,-0.64,-1.56,0.19,0.47,0.40,0.41,
2.305,-0.64,-1.56,0.19,0.44,0.41,0.40,
2.307,-0.64,-1.56,0.19,0.40,0.42,0.40,
2.31,-0.53,-1.90,-0.36,0.40,0.42,0.40,
2.31,-0.53,-1.90,-0.36,0.37,0.44,0.40,
2.311,-0.53,-1.90,-0.36,0.33,0.46,0.39,
2.313,-0.53,-1.90,-0.36,0.30,0.48,0.38,
2.315,-0.53,-1.90,-0.36,0.27,0.50,0.38,
2.317,-0.53,-1.90,-0.36,0.23,0.52,0.38,
2.319,-0.70,-1.97,-0.28,0.23,0.52,0.38,
2.319,-0.70,-1.97,-0.28,0.20,0.53,0.37,
2.321,-0.70,-1.97,-0.28,0.17,0.55,0.37,
2.323,-0.70,-1.97,-0.28,0.15,0.56,0.37,
2.325,-0.70,-1.97,-0.28,0.13,0.57,0.36,
2.327,-0.70,-1.97,-0.28,0.11,0.58,0.36,
2.33,-0.78,-2.08,0.35,0.11,0.58,0.36,
2.33,-0.78,-2.08,0.35,0.09,0.60,0.36,
2.331,-0.78,-2.08,0.35,0.08,0.61,0.36,
2.333,-0.78,-2.08,0.35,0.08,0.62,0.36,
2.335,-0.78,-2.08,0.35,0.07,0.63,0.36,
2.337,-0.78,-2.08,0.35,0.08,0.64,0.36,
2.339,-0.90,-2.24,1.31,0.08,0.64,0.36,
2.34,-0.90,-2.24,1.31,0.08,0.64,0.36,
2.341,-0.90,-2.24,1.31,0.10,0.65,0.36,
2.348,-0.90,-2.24,1.31,0.11,0.65,0.37,
2.348,-0.90,-2.24,1.31,0.13,0.64,0.37,
2.348,-0.90,-2.24,1.31,0.16,0.64,0.37,
2.349,-0.96,-2.26,2.17,0.16,0.64,0.37,
2.349,-0.96,-2.26,2.17,0.18,0.63,0.38,
2.351,-0.96,-2.26,2.17,0.22,0.61,0.38,
2.353,-0.96,-2.26,2.17,0.25,0.59,0.39,
2.354,-0.96,-2.26,2.17,0.26,0.59,0.39,
2.357,-0.96,-2.26,2.17,0.29,0.57,0.40,
2.365,-1.04,-2.37,2.65,0.29,0.57,0.40,
2.366,-1.04,-2.37,2.65,0.32,0.54,0.40,
2.366,-1.04,-2.37,2.65,0.35,0.52,0.41,
2.366,-1.04,-2.37,2.65,0.37,0.49,0.42,
2.366,-1.04,-2.37,2.65,0.40,0.47,0.43,
2.367,-1.04,-2.37,2.65,0.42,0.43,0.44,
2.37,-1.21,-2.35,2.59,0.42,0.43,0.44,
2.37,-1.21,-2.35,2.59,0.44,0.40,0.46,
2.373,-1.21,-2.35,2.59,0.46,0.37,0.47,
2.373,-1.21,-2.35,2.59,0.48,0.33,0.48,
2.376,-1.21,-2.35,2.59,0.49,0.30,0.50,
2.377,-1.21,-2.35,2.59,0.50,0.27,0.52,
2.379,-1.37,-2.33,2.27,0.50,0.27,0.52,
2.379,-1.37,-2.33,2.27,0.51,0.23,0.53,
2.381,-1.37,-2.33,2.27,0.52,0.20,0.55,
2.382,-1.37,-2.33,2.27,0.53,0.17,0.57,
2.384,-1.37,-2.33,2.27,0.53,0.14,0.58,
2.386,-1.37,-2.33,2.27,0.54,0.11,0.60,
2.389,-1.20,-2.21,1.95,0.54,0.11,0.60,
2.389,-1.20,-2.21,1.95,0.54,0.08,0.61,
2.391,-1.20,-2.21,1.95,0.54,0.05,0.63,
2.392,-1.20,-2.21,1.95,0.54,0.02,0.64,
2.394,-1.20,-2.21,1.95,0.54,0.00,0.65,
2.397,-1.20,-2.21,1.95,0.54,-0.02,0.66,
2.399,-0.76,-2.11,1.82,0.54,-0.02,0.66,
2.399,-0.76,-2.11,1.82,0.54,-0.03,0.67,
2.401,-0.76,-2.11,1.82,0.55,-0.04,0.68,
2.403,-0.76,-2.11,1.82,0.55,-0.04,0.68,
2.404,-0.76,-2.11,1.82,0.55,-0.04,0.69,
2.407,-0.76,-2.11,1.82,0.55,-0.04,0.69,
2.409,-0.18,-1.91,1.80,0.55,-0.04,0.69,
2.41,-0.18,-1.91,1.80,0.56,-0.03,0.69,
2.411,-0.18,-1.91,1.80,0.65,0.01,0.70,
2.413,-0.18,-1.91,1.80,0.62,0.01,0.70,
2.415,-0.18,-1.91,1.80,0.57,0.01,0.69,
2.416,-0.18,-1.91,1.80,0.58,0.03,0.69,
2.419,0.33,-1.80,1.75,0.58,0.03,0.69,
2.42,0.33,-1.80,1.75,0.58,0.05,0.68,
2.421,0.33,-1.80,1.75,0.58,0.08,0.68,
2.423,0.33,-1.80,1.75,0.59,0.11,0.68,
2.426,0.33,-1.80,1.75,0.59,0.15,0.68,
2.43,0.33,-1.80,1.75,0.59,0.18,0.67,
2.43,0.67,-1.39,1.44,0.59,0.18,0.67,
2.431,0.67,-1.39,1.44,0.60,0.23,0.67,
2.431,0.67,-1.39,1.44,0.60,0.27,0.66,
2.433,0.67,-1.39,1.44,0.61,0.30,0.66,
2.435,0.67,-1.39,1.44,0.60,0.33,0.65,
2.437,0.67,-1.39,1.44,0.60,0.36,0.65,
2.44,0.97,-1.47,1.01,0.60,0.36,0.65,
2.44,0.97,-1.47,1.01,0.60,0.38,0.64,
2.476,0.97,-1.47,1.01,0.59,0.40,0.63,
2.477,0.97,-1.47,1.01,0.57,0.42,0.62,
2.478,0.97,-1.47,1.01,0.56,0.43,0.60,
2.478,0.97,-1.47,1.01,0.54,0.45,0.59,
2.479,1.21,-1.72,0.17,0.54,0.45,0.59,
2.48,1.21,-1.72,0.17,0.52,0.46,0.58,
2.481,1.21,-1.72,0.17,0.51,0.48,0.57,
2.482,1.21,-1.72,0.17,0.48,0.49,0.57,
2.482,1.21,-1.72,0.17,0.46,0.49,0.56,
2.483,1.21,-1.72,0.17,0.42,0.50,0.55,
2.484,1.27,-1.55,-0.62,0.42,0.50,0.55,
2.484,1.27,-1.55,-0.62,0.39,0.52,0.55,
2.485,1.27,-1.55,-0.62,0.37,0.54,0.54,
2.486,1.27,-1.55,-0.62,0.34,0.56,0.52,
2.487,1.27,-1.55,-0.62,0.30,0.56,0.51,
2.487,1.27,-1.55,-0.62,0.27,0.56,0.49,
2.488,1.41,-1.42,-1.20,0.27,0.56,0.49,
2.489,1.41,-1.42,-1.20,0.23,0.56,0.47,
2.49,1.41,-1.42,-1.20,0.20,0.56,0.46,
2.491,1.41,-1.42,-1.20,0.16,0.56,0.44,
2.492,1.41,-1.42,-1.20,0.13,0.57,0.42,
2.493,1.41,-1.42,-1.20,0.09,0.57,0.41,
2.494,1.63,-1.40,-1.47,0.09,0.57,0.41,
2.494,1.63,-1.40,-1.47,0.06,0.58,0.39,
2.495,1.63,-1.40,-1.47,0.03,0.58,0.38,
2.496,1.63,-1.40,-1.47,-0.01,0.59,0.36,
2.497,1.63,-1.40,-1.47,-0.04,0.60,0.34,
2.498,1.63,-1.40,-1.47,-0.07,0.60,0.33,
2.498,1.59,-1.45,-1.48,-0.07,0.60,0.33,
2.499,1.59,-1.45,-1.48,-0.09,0.62,0.32,
2.499,1.59,-1.45,-1.48,-0.12,0.63,0.30,
2.499,1.59,-1.45,-1.48,-0.14,0.65,0.29,
2.5,1.59,-1.45,-1.48,-0.16,0.66,0.28,
2.5,1.59,-1.45,-1.48,-0.18,0.68,0.27,
2.52,1.42,-1.50,-1.27,-0.18,0.68,0.27,
2.521,1.42,-1.50,-1.27,-0.19,0.70,0.26,
2.521,1.42,-1.50,-1.27,-0.21,0.72,0.25,
2.522,1.42,-1.50,-1.27,-0.22,0.74,0.25,
2.522,1.42,-1.50,-1.27,-0.22,0.76,0.24,
2.522,1.42,-1.50,-1.27,-0.23,0.77,0.24,
2.523,1.03,-1.54,-0.98,-0.23,0.77,0.24,
2.523,1.03,-1.54,-0.98,-0.23,0.79,0.24,
2.523,1.03,-1.54,-0.98,-0.23,0.80,0.24,
2.524,1.03,-1.54,-0.98,-0.23,0.81,0.25,
2.524,1.03,-1.54,-0.98,-0.23,0.82,0.25,
2.524,1.03,-1.54,-0.98,-0.23,0.83,0.26,
2.525,0.69,-1.51,-0.93,-0.23,0.83,0.26,
2.525,0.69,-1.51,-0.93,-0.22,0.84,0.26,
2.525,0.69,-1.51,-0.93,-0.22,0.84,0.27,
2.526,0.69,-1.51,-0.93,-0.22,0.84,0.27,
2.526,0.69,-1.51,-0.93,-0.21,0.84,0.28,
2.527,0.69,-1.51,-0.93,-0.21,0.84,0.28,
2.53,0.52,-1.39,-1.20,-0.21,0.84,0.28,
2.53,0.52,-1.39,-1.20,-0.21,0.83,0.29,
2.531,0.52,-1.39,-1.20,-0.20,0.82,0.29,
2.533,0.52,-1.39,-1.20,-0.20,0.80,0.29,
2.535,0.52,-1.39,-1.20,-0.20,0.79,0.30,
2.537,0.52,-1.39,-1.20,-0.20,0.77,0.30,
2.539,0.54,-1.33,-1.56,-0.20,0.77,0.30,
2.54,0.54,-1.33,-1.56,-0.19,0.75,0.30,
2.551,0.54,-1.33,-1.56,-0.19,0.72,0.30,
2.552,0.54,-1.33,-1.56,-0.19,0.70,0.30,
2.553,0.54,-1.33,-1.56,-0.18,0.67,0.30,
2.553,0.54,-1.33,-1.56,-0.19,0.64,0.30,
2.553,0.59,-1.21,-1.86,-0.19,0.64,0.30,
2.554,0.59,-1.21,-1.86,-0.18,0.61,0.30,
2.554,0.59,-1.21,-1.86,-0.18,0.58,0.30,
2.554,0.59,-1.21,-1.86,-0.18,0.55,0.30,
2.558,0.59,-1.21,-1.86,-0.17,0.52,0.30,
2.559,0.59,-1.21,-1.86,-0.17,0.49,0.30,
2.583,0.68,-1.04,-2.14,-0.17,0.49,0.30,
2.585,0.68,-1.04,-2.14,-0.17,0.46,0.30,
2.586,0.68,-1.04,-2.14,-0.17,0.44,0.30,
2.587,0.68,-1.04,-2.14,-0.17,0.41,0.29,
2.587,0.68,-1.04,-2.14,-0.18,0.38,0.28,
2.589,0.68,-1.04,-2.14,-0.18,0.35,0.28,
2.592,0.82,-0.97,-2.36,-0.18,0.35,0.28,
2.593,0.82,-0.97,-2.36,-0.18,0.33,0.27,
2.595,0.82,-0.97,-2.36,-0.19,0.31,0.27,
2.596,0.82,-0.97,-2.36,-0.19,0.29,0.26,
2.597,0.82,-0.97,-2.36,-0.19,0.27,0.26,
2.598,0.82,-0.97,-2.36,-0.20,0.25,0.25,
2.598,0.95,-0.93,-2.49,-0.20,0.25,0.25,
2.599,0.95,-0.93,-2.49,-0.20,0.24,0.24,
2.6,0.95,-0.93,-2.49,-0.21,0.22,0.24,
2.601,0.95,-0.93,-2.49,-0.21,0.20,0.23,
2.602,0.95,-0.93,-2.49,-0.21,0.19,0.23,
2.602,0.95,-0.93,-2.49,-0.22,0.18,0.23,
2.603,0.93,-0.94,-2.53,-0.22,0.18,0.23,
2.603,0.93,-0.94,-2.53,-0.22,0.17,0.22,
2.604,0.93,-0.94,-2.53,-0.23,0.16,0.22,
2.604,0.93,-0.94,-2.53,-0.23,0.15,0.22,
2.605,0.93,-0.94,-2.53,-0.24,0.15,0.21,
2.606,0.93,-0.94,-2.53,-0.25,0.14,0.21,
2.606,0.92,-0.93,-2.54,-0.25,0.14,0.21,
2.607,0.92,-0.93,-2.54,-0.25,0.14,0.21,
2.608,0.92,-0.93,-2.54,-0.26,0.14,0.20,
2.608,0.92,-0.93,-2.54,-0.26,0.14,0.20,
2.611,0.92,-0.93,-2.54,-0.27,0.14,0.20,
2.612,0.92,-0.93,-2.54,-0.28,0.15,0.19,
2.636,0.89,-0.90,-2.53,-0.28,0.15,0.19,
2.637,0.89,-0.90,-2.53,-0.29,0.15,0.19,
2.637,0.89,-0.90,-2.53,-0.29,0.16,0.19,
2.638,0.89,-0.90,-2.53,-0.30,0.17,0.19,
2.638,0.89,-0.90,-2.53,-0.31,0.18,0.18,
2.638,0.89,-0.90,-2.53,-0.32,0.19,0.18,
2.639,0.95,-0.86,-2.55,-0.32,0.19,0.18,
2.639,0.95,-0.86,-2.55,-0.33,0.20,0.18,
2.639,0.95,-0.86,-2.55,-0.34,0.22,0.18,
2.639,0.95,-0.86,-2.55,-0.35,0.23,0.18,
2.64,0.95,-0.86,-2.55,-0.36,0.24,0.17,
2.64,0.95,-0.86,-2.55,-0.38,0.26,0.17,
2.64,0.94,-0.87,-2.52,-0.38,0.26,0.17,
2.64,0.94,-0.87,-2.52,-0.39,0.27,0.17,
2.641,0.94,-0.87,-2.52,-0.40,0.29,0.17,
2.641,0.94,-0.87,-2.52,-0.41,0.30,0.17,
2.641,0.94,-0.87,-2.52,-0.42,0.32,0.17,
2.642,0.94,-0.87,-2.52,-0.42,0.33,0.18,
2.642,0.97,-0.84,-2.42,-0.42,0.33,0.18,
2.642,0.97,-0.84,-2.42,-0.43,0.35,0.18,
2.642,0.97,-0.84,-2.42,-0.44,0.36,0.18,
2.649,0.97,-0.84,-2.42,-0.44,0.38,0.18,
2.65,0.97,-0.84,-2.42,-0.45,0.38,0.17,
2.65,0.97,-0.84,-2.42,-0.45,0.40,0.17,
2.65,0.98,-0.80,-2.22,-0.45,0.40,0.17,
2.65,0.98,-0.80,-2.22,-0.45,0.40,0.17,
2.655,0.98,-0.80,-2.22,-0.45,0.41,0.17,
2.656,0.98,-0.80,-2.22,-0.45,0.42,0.17,
2.656,0.98,-0.80,-2.22,-0.44,0.42,0.17,
2.656,0.98,-0.80,-2.22,-0.44,0.43,0.17,
2.665,1.04,-0.73,-1.97,-0.44,0.43,0.17,
2.666,1.04,-0.73,-1.97,-0.43,0.43,0.17,
2.666,1.04,-0.73,-1.97,-0.42,0.43,0.16,
2.666,1.04,-0.73,-1.97,-0.42,0.43,0.16,
2.666,1.04,-0.73,-1.97,-0.41,0.43,0.16,
2.667,1.04,-0.73,-1.97,-0.40,0.43,0.16,
2.698,0.99,-0.70,-1.79,-0.40,0.43,0.16,
2.698,0.99,-0.70,-1.79,-0.38,0.43,0.16,
2.699,0.99,-0.70,-1.79,-0.37,0.42,0.16,
2.699,0.99,-0.70,-1.79,-0.35,0.42,0.16,
2.699,0.99,-0.70,-1.79,-0.34,0.41,0.17,
2.699,0.99,-0.70,-1.79,-0.33,0.41,0.17,
2.699,0.92,-0.68,-1.74,-0.33,0.41,0.17,
2.699,0.92,-0.68,-1.74,-0.31,0.40,0.17,
2.7,0.92,-0.68,-1.74,-0.30,0.40,0.17,
2.7,0.92,-0.68,-1.74,-0.29,0.38,0.17,
2.7,0.92,-0.68,-1.74,-0.27,0.37,0.17,
2.7,0.92,-0.68,-1.74,-0.26,0.36,0.18,
2.7,0.86,-0.68,-1.76,-0.26,0.36,0.18,
2.701,0.86,-0.68,-1.76,-0.25,0.35,0.18,
2.701,0.86,-0.68,-1.76,-0.23,0.34,0.18,
2.701,0.86,-0.68,-1.76,-0.22,0.33,0.19,
2.701,0.86,-0.68,-1.76,-0.21,0.32,0.19,
2.701,0.86,-0.68,-1.76,-0.19,0.31,0.19,
2.702,0.75,-0.66,-1.79,-0.19,0.31,0.19,
2.702,0.75,-0.66,-1.79,-0.18,0.30,0.20,
2.702,0.75,-0.66,-1.79,-0.16,0.28,0.21,
2.704,0.75,-0.66,-1.79,-0.14,0.27,0.21,
2.705,0.75,-0.66,-1.79,-0.14,0.27,0.22,
2.71,0.75,-0.66,-1.79,-0.13,0.26,0.22,
2.711,0.65,-0.63,-1.83,-0.13,0.26,0.22,
2.712,0.65,-0.63,-1.83,-0.11,0.25,0.23,
2.713,0.65,-0.63,-1.83,-0.10,0.24,0.23,
2.713,0.65,-0.63,-1.83,-0.09,0.23,0.24,
2.714,0.65,-0.63,-1.83,-0.08,0.22,0.25,
2.717,0.65,-0.63,-1.83,-0.07,0.21,0.26,
2.719,0.54,-0.62,-1.87,-0.07,0.21,0.26,
2.72,0.54,-0.62,-1.87,-0.06,0.21,0.26,
2.721,0.54,-0.62,-1.87,-0.04,0.21,0.27,
2.726,0.54,-0.62,-1.87,-0.03,0.21,0.28,
2.726,0.54,-0.62,-1.87,-0.02,0.22,0.29,
2.727,0.54,-0.62,-1.87,-0.01,0.22,0.30,
2.729,0.45,-0.58,-1.92,-0.01,0.22,0.30,
2.73,0.45,-0.58,-1.92,-0.00,0.23,0.31,
2.731,0.45,-0.58,-1.92,0.01,0.24,0.32,
2.733,0.45,-0.58,-1.92,0.02,0.25,0.33,
2.735,0.45,-0.58,-1.92,0.03,0.26,0.34,
2.737,0.45,-0.58,-1.92,0.03,0.27,0.35,
2.74,0.44,-0.54,-2.04,0.03,0.27,0.35,
2.74,0.44,-0.54,-2.04,0.04,0.29,0.36,
2.741,0.44,-0.54,-2.04,0.05,0.30,0.37,
2.746,0.44,-0.54,-2.04,0.06,0.31,0.38,
2.747,0.44,-0.54,-2.04,0.07,0.32,0.39,
2.747,0.44,-0.54,-2.04,0.08,0.33,0.40,
2.749,0.41,-0.51,-2.14,0.08,0.33,0.40,
2.75,0.41,-0.51,-2.14,0.09,0.34,0.41,
2.751,0.41,-0.51,-2.14,0.09,0.35,0.42,
2.753,0.41,-0.51,-2.14,0.10,0.36,0.43,
2.755,0.41,-0.51,-2.14,0.10,0.36,0.44,
2.762,0.41,-0.51,-2.14,0.11,0.37,0.45,
2.762,0.44,-0.44,-2.31,0.11,0.37,0.45,
2.762,0.44,-0.44,-2.31,0.11,0.37,0.46,
2.763,0.44,-0.44,-2.31,0.11,0.37,0.47,
2.763,0.44,-0.44,-2.31,0.12,0.37,0.47,
2.765,0.44,-0.44,-2.31,0.12,0.37,0.48,
2.767,0.44,-0.44,-2.31,0.12,0.37,0.48,
2.802,0.61,-0.40,-2.44,0.12,0.37,0.48,
2.802,0.61,-0.40,-2.44,0.12,0.37,0.48,
2.803,0.61,-0.40,-2.44,0.13,0.36,0.48,
2.803,0.61,-0.40,-2.44,0.13,0.36,0.48,
2.83,0.61,-0.40,-2.44,0.13,0.35,0.48,
2.831,0.61,-0.40,-2.44,0.13,0.35,0.48,
2.831,0.84,-0.29,-2.50,0.13,0.35,0.48,
2.831,0.84,-0.29,-2.50,0.13,0.34,0.48,
2.831,0.84,-0.29,-2.50,0.13,0.33,0.47,
2.832,0.84,-0.29,-2.50,0.13,0.31,0.47,
2.832,0.84,-0.29,-2.50,0.13,0.30,0.46,
2.832,0.84,-0.29,-2.50,0.13,0.28,0.46,
2.832,0.88,-0.22,-2.48,0.13,0.28,0.46,
2.833,0.88,-0.22,-2.48,0.13,0.27,0.45,
2.833,0.88,-0.22,-2.48,0.13,0.25,0.45,
2.833,0.88,-0.22,-2.48,0.13,0.23,0.45,
2.834,0.88,-0.22,-2.48,0.14,0.21,0.45,
2.834,0.88,-0.22,-2.48,0.14,0.20,0.44,
2.834,0.84,-0.03,-2.45,0.14,0.20,0.44,
2.834,0.84,-0.03,-2.45,0.13,0.18,0.44,
2.835,0.84,-0.03,-2.45,0.13,0.16,0.44,
2.835,0.84,-0.03,-2.45,0.13,0.15,0.43,
2.835,0.84,-0.03,-2.45,0.13,0.13,0.43,
2.835,0.84,-0.03,-2.45,0.12,0.11,0.42,
2.836,0.72,0.09,-2.44,0.12,0.11,0.42,
2.836,0.72,0.09,-2.44,0.12,0.10,0.42,
2.836,0.72,0.09,-2.44,0.11,0.08,0.41,
2.836,0.72,0.09,-2.44,0.11,0.07,0.40,
2.837,0.72,0.09,-2.44,0.10,0.05,0.40,
2.837,0.72,0.09,-2.44,0.09,0.04,0.39,
2.837,0.59,0.25,-2.51,0.09,0.04,0.39,
2.837,0.59,0.25,-2.51,0.08,0.03,0.39,
2.838,0.59,0.25,-2.51,0.06,0.01,0.38,
2.838,0.59,0.25,-2.51,0.05,0.00,0.37,
2.838,0.59,0.25,-2.51,0.04,-0.01,0.37,
2.839,0.59,0.25,-2.51,0.03,-0.01,0.37,
2.839,0.27,0.42,-2.40,0.03,-0.01,0.37,
2.839,0.27,0.42,-2.40,0.02,-0.02,0.37,
2.839,0.27,0.42,-2.40,0.01,-0.03,0.38,
2.84,0.27,0.42,-2.40,-0.01,-0.04,0.39,
2.84,0.27,0.42,-2.40,-0.03,-0.05,0.39,
2.84,0.27,0.42,-2.40,-0.04,-0.06,0.40,
2.84,-0.02,0.35,-2.27,-0.04,-0.06,0.40,
2.841,-0.02,0.35,-2.27,-0.06,-0.08,0.40,
2.841,-0.02,0.35,-2.27,-0.08,-0.09,0.41,
2.85,-0.02,0.35,-2.27,-0.10,-0.11,0.42,
2.851,-0.02,0.35,-2.27,-0.11,-0.13,0.42,
2.851,-0.02,0.35,-2.27,-0.13,-0.16,0.42,
2.852,-0.05,0.23,-1.88,-0.13,-0.16,0.42,
2.852,-0.05,0.23,-1.88,-0.15,-0.19,0.43,
2.852,-0.05,0.23,-1.88,-0.16,-0.21,0.43,
2.853,-0.05,0.23,-1.88,-0.17,-0.24,0.44,
2.857,-0.05,0.23,-1.88,-0.18,-0.27,0.44,
2.858,-0.05,0.23,-1.88,-0.18,-0.30,0.45,
2.872,0.03,0.37,-0.76,-0.18,-0.30,0.45,
2.873,0.03,0.37,-0.76,-0.18,-0.32,0.45,
2.873,0.03,0.37,-0.76,-0.17,-0.34,0.46,
2.874,0.03,0.37,-0.76,-0.16,-0.36,0.47,
2.874,0.03,0.37,-0.76,-0.14,-0.38,0.48,
2.874,0.03,0.37,-0.76,-0.12,-0.39,0.49,
2.875,0.15,0.45,0.62,-0.12,-0.39,0.49,
2.875,0.15,0.45,0.62,-0.10,-0.39,0.49,
2.875,0.15,0.45,0.62,-0.07,-0.40,0.50,
2.876,0.15,0.45,0.62,-0.05,-0.41,0.51,
2.876,0.15,0.45,0.62,-0.02,-0.41,0.51,
2.877,0.15,0.45,0.62,0.01,-0.42,0.51,
2.882,0.49,0.46,1.66,0.01,-0.42,0.51,
2.882,0.49,0.46,1.66,0.04,-0.42,0.52,
2.882,0.49,0.46,1.66,0.07,-0.42,0.52,
2.883,0.49,0.46,1.66,0.10,-0.41,0.53,
2.887,0.49,0.46,1.66,0.13,-0.41,0.52,
2.887,0.49,0.46,1.66,0.17,-0.41,0.53,
2.891,0.56,0.56,2.26,0.17,-0.41,0.53,
2.891,0.56,0.56,2.26,0.20,-0.40,0.53,
2.892,0.56,0.56,2.26,0.23,-0.39,0.53,
2.893,0.56,0.56,2.26,0.26,-0.38,0.53,
2.895,0.56,0.56,2.26,0.29,-0.37,0.54,
2.897,0.56,0.56,2.26,0.32,-0.36,0.54,
2.899,0.57,0.69,2.45,0.32,-0.36,0.54,
2.899,0.57,0.69,2.45,0.35,-0.35,0.55,
2.901,0.57,0.69,2.45,0.37,-0.33,0.55,
2.903,0.57,0.69,2.45,0.40,-0.31,0.55,
2.905,0.57,0.69,2.45,0.42,-0.29,0.56,
2.913,0.57,0.69,2.45,0.44,-0.27,0.56,
2.914,0.48,0.85,2.11,0.44,-0.27,0.56,
2.915,0.48,0.85,2.11,0.45,-0.26,0.57,
2.916,0.48,0.85,2.11,0.46,-0.23,0.57,
2.916,0.48,0.85,2.11,0.47,-0.21,0.57,
2.916,0.48,0.85,2.11,0.47,-0.18,0.57,
2.917,0.48,0.85,2.11,0.47,-0.16,0.56,
2.951,0.63,1.00,1.47,0.47,-0.16,0.56,
2.951,0.63,1.00,1.47,0.46,-0.13,0.56,
2.952,0.63,1.00,1.47,0.46,-0.09,0.55,
2.952,0.63,1.00,1.47,0.45,-0.06,0.55,
2.952,0.63,1.00,1.47,0.44,-0.02,0.54,
2.952,0.63,1.00,1.47,0.42,0.01,0.53,
2.953,0.76,1.23,0.90,0.42,0.01,0.53,
2.953,0.76,1.23,0.90,0.41,0.05,0.51,
2.953,0.76,1.23,0.90,0.39,0.09,0.50,
2.954,0.76,1.23,0.90,0.36,0.13,0.49,
2.954,0.76,1.23,0.90,0.34,0.17,0.48,
2.954,0.76,1.23,0.90,0.32,0.21,0.47,
2.955,0.74,1.39,0.49,0.32,0.21,0.47,
2.955,0.74,1.39,0.49,0.29,0.25,0.47,
2.979,0.74,1.39,0.49,0.26,0.29,0.46,
2.979,0.74,1.39,0.49,0.23,0.33,0.45,
2.979,0.74,1.39,0.49,0.20,0.37,0.45,
2.979,0.74,1.39,0.49,0.16,0.41,0.44,
2.979,0.39,1.50,0.19,0.16,0.41,0.44,
2.98,0.39,1.50,0.19,0.13,0.44,0.44,
2.98,0.39,1.50,0.19,0.09,0.47,0.44,
2.98,0.39,1.50,0.19,0.05,0.50,0.44,
2.98,0.39,1.50,0.19,0.01,0.53,0.45,
2.98,0.39,1.50,0.19,-0.02,0.55,0.45,
2.98,-0.15,1.72,0.26,-0.02,0.55,0.45,
2.981,-0.15,1.72,0.26,-0.06,0.58,0.46,
2.981,-0.15,1.72,0.26,-0.09,0.60,0.46,
2.981,-0.15,1.72,0.26,-0.12,0.61,0.47,
2.981,-0.15,1.72,0.26,-0.15,0.63,0.48,
2.981,-0.15,1.72,0.26,-0.17,0.64,0.49,
2.982,-0.63,1.87,0.77,-0.17,0.64,0.49,
2.982,-0.63,1.87,0.77,-0.20,0.66,0.50,
2.982,-0.63,1.87,0.77,-0.22,0.67,0.51,
2.982,-0.63,1.87,0.77,-0.24,0.68,0.53,
2.982,-0.63,1.87,0.77,-0.25,0.69,0.54,
2.982,-0.63,1.87,0.77,-0.27,0.70,0.55,
2.983,-0.93,1.93,1.46,-0.27,0.70,0.55,
2.983,-0.93,1.93,1.46,-0.28,0.71,0.57,
2.983,-0.93,1.93,1.46,-0.29,0.72,0.58,
2.983,-0.93,1.93,1.46,-0.30,0.72,0.59,
2.989,-0.93,1.93,1.46,-0.31,0.73,0.61,
2.99,-0.93,1.93,1.46,-0.32,0.73,0.62,
2.997,-1.00,1.91,1.90,-0.32,0.73,0.62,
2.997,-1.00,1.91,1.90,-0.32,0.73,0.63,
2.997,-1.00,1.91,1.90,-0.34,0.72,0.65,
2.997,-1.00,1.91,1.90,-0.34,0.72,0.66,
2.998,-1.00,1.91,1.90,-0.36,0.71,0.67,
2.998,-1.00,1.91,1.90,-0.37,0.71,0.68,
3.004,-0.88,1.89,2.03,-0.37,0.71,0.68,
3.004,-0.88,1.89,2.03,-0.39,0.70,0.69,
3.004,-0.88,1.89,2.03,-0.40,0.69,0.70,
3.004,-0.88,1.89,2.03,-0.41,0.68,0.70,
3.007,-0.88,1.89,2.03,-0.43,0.67,0.71,
3.007,-0.88,1.89,2.03,-0.44,0.65,0.71,
3.014,-0.67,1.88,2.11,-0.44,0.65,0.71,
3.014,-0.67,1.88,2.11,-0.46,0.63,0.72,
3.014,-0.67,1.88,2.11,-0.48,0.61,0.72,
3.014,-0.67,1.88,2.11,-0.49,0.59,0.72,
3.015,-0.67,1.88,2.11,-0.51,0.57,0.72,
3.017,-0.67,1.88,2.11,-0.52,0.55,0.72,
3.019,-0.43,1.79,2.33,-0.52,0.55,0.72,
3.019,-0.43,1.79,2.33,-0.54,0.52,0.72,
3.021,-0.43,1.79,2.33,-0.55,0.50,0.72,
3.027,-0.43,1.79,2.33,-0.57,0.47,0.72,
3.027,-0.43,1.79,2.33,-0.58,0.45,0.72,
3.027,-0.43,1.79,2.33,-0.58,0.42,0.73,
3.033,-0.35,1.56,2.78,-0.58,0.42,0.73,
3.034,-0.35,1.56,2.78,-0.59,0.40,0.73,
3.036,-0.35,1.56,2.78,-0.60,0.37,0.74,
3.036,-0.35,1.56,2.78,-0.61,0.35,0.74,
3.036,-0.35,1.56,2.78,-0.61,0.33,0.74,
3.037,-0.35,1.56,2.78,-0.61,0.30,0.75,
3.052,-0.19,1.21,3.41,-0.61,0.30,0.75,
3.052,-0.19,1.21,3.41,-0.61,0.28,0.75,
3.052,-0.19,1.21,3.41,-0.60,0.27,0.76,
3.052,-0.19,1.21,3.41,-0.60,0.26,0.76,
3.052,-0.19,1.21,3.41,-0.59,0.25,0.77,
3.052,-0.19,1.21,3.41,-0.58,0.24,0.78,
3.053,-0.03,0.89,4.05,-0.58,0.24,0.78,
3.053,-0.03,0.89,4.05,-0.56,0.24,0.78,
3.056,-0.03,0.89,4.05,-0.53,0.24,0.79,
3.056,-0.03,0.89,4.05,-0.51,0.25,0.79,
3.058,-0.03,0.89,4.05,-0.50,0.25,0.80,
3.059,-0.03,0.89,4.05,-0.48,0.27,0.80,
3.061,0.14,0.52,4.64,-0.48,0.27,0.80,
3.061,0.14,0.52,4.64,-0.45,0.28,0.81,
3.061,0.14,0.52,4.64,-0.42,0.30,0.82,
3.064,0.14,0.52,4.64,-0.39,0.32,0.82,
3.064,0.14,0.52,4.64,-0.36,0.34,0.83,
3.067,0.14,0.52,4.64,-0.32,0.37,0.84,
3.069,0.12,0.18,4.93,-0.32,0.37,0.84,
3.069,0.12,0.18,4.93,-0.28,0.39,0.85,
3.072,0.12,0.18,4.93,-0.25,0.42,0.86,
3.074,0.12,0.18,4.93,-0.21,0.45,0.88,
3.075,0.12,0.18,4.93,-0.17,0.48,0.89,
3.077,0.12,0.18,4.93,-0.13,0.51,0.91,
3.079,-0.04,-0.12,4.88,-0.13,0.51,0.91,
3.08,-0.04,-0.12,4.88,-0.09,0.53,0.92,
3.081,-0.04,-0.12,4.88,-0.04,0.56,0.94,
3.082,-0.04,-0.12,4.88,-0.01,0.58,0.96,
3.085,-0.04,-0.12,4.88,0.03,0.60,0.98,
3.086,-0.04,-0.12,4.88,0.07,0.62,0.99,
3.09,-0.23,-0.37,4.31,0.07,0.62,0.99,
3.09,-0.23,-0.37,4.31,0.10,0.63,1.01,
3.091,-0.23,-0.37,4.31,0.14,0.64,1.03,
3.093,-0.23,-0.37,4.31,0.17,0.64,1.05,
3.095,-0.23,-0.37,4.31,0.20,0.63,1.07,
3.097,-0.23,-0.37,4.31,0.23,0.63,1.09,
3.099,-0.37,-0.59,3.53,0.23,0.63,1.09,
3.099,-0.37,-0.59,3.53,0.26,0.62,1.11,
3.101,-0.37,-0.59,3.53,0.29,0.60,1.13,
3.103,-0.37,-0.59,3.53,0.32,0.58,1.15,
3.106,-0.37,-0.59,3.53,0.34,0.56,1.17,
3.11,-0.37,-0.59,3.53,0.36,0.53,1.18,
3.131,-0.51,-0.68,2.71,0.36,0.53,1.18,
3.131,-0.51,-0.68,2.71,0.39,0.50,1.20,
3.131,-0.51,-0.68,2.71,0.41,0.46,1.22,
3.132,-0.51,-0.68,2.71,0.43,0.43,1.24,
3.132,-0.51,-0.68,2.71,0.44,0.39,1.26,
3.133,-0.51,-0.68,2.71,0.46,0.35,1.27,
3.133,-0.54,-0.80,1.93,0.46,0.35,1.27,
3.134,-0.54,-0.80,1.93,0.47,0.31,1.29,
3.134,-0.54,-0.80,1.93,0.48,0.26,1.30,
3.134,-0.54,-0.80,1.93,0.48,0.22,1.32,
3.135,-0.54,-0.80,1.93,0.49,0.18,1.33,
3.135,-0.54,-0.80,1.93,0.49,0.14,1.34,
3.136,-0.27,-0.90,1.22,0.49,0.14,1.34,
3.136,-0.27,-0.90,1.22,0.49,0.09,1.34,
3.136,-0.27,-0.90,1.22,0.49,0.05,1.35,
3.137,-0.27,-0.90,1.22,0.49,0.01,1.36,
3.137,-0.27,-0.90,1.22,0.49,-0.03,1.36,
3.144,-0.27,-0.90,1.22,0.49,-0.07,1.37,
3.145,0.10,-1.03,0.91,0.49,-0.07,1.37,
3.145,0.10,-1.03,0.91,0.49,-0.11,1.37,
3.146,0.10,-1.03,0.91,0.49,-0.15,1.37,
3.146,0.10,-1.03,0.91,0.50,-0.19,1.37,
3.146,0.10,-1.03,0.91,0.50,-0.22,1.36,
3.147,0.10,-1.03,0.91,0.50,-0.26,1.36,
3.15,0.51,-1.10,1.01,0.50,-0.26,1.36,
3.151,0.51,-1.10,1.01,0.51,-0.29,1.35,
3.151,0.51,-1.10,1.01,0.52,-0.32,1.34,
3.153,0.51,-1.10,1.01,0.53,-0.35,1.34,
3.164,0.51,-1.10,1.01,0.54,-0.38,1.33,
3.165,0.51,-1.10,1.01,0.55,-0.41,1.32,
3.166,0.96,-1.22,1.22,0.55,-0.41,1.32,
3.166,0.96,-1.22,1.22,0.56,-0.44,1.31,
3.166,0.96,-1.22,1.22,0.57,-0.46,1.29,
3.191,0.96,-1.22,1.22,0.58,-0.49,1.28,
3.192,0.96,-1.22,1.22,0.59,-0.50,1.26,
3.192,0.96,-1.22,1.22,0.61,-0.52,1.25,
3.192,1.22,-1.38,1.36,0.61,-0.52,1.25,
3.193,1.22,-1.38,1.36,0.62,-0.53,1.23,
3.193,1.22,-1.38,1.36,0.63,-0.53,1.22,
3.193,1.22,-1.38,1.36,0.65,-0.54,1.20,
3.193,1.22,-1.38,1.36,0.66,-0.54,1.19,
3.194,1.22,-1.38,1.36,0.67,-0.53,1.17,
3.194,1.45,-1.58,1.38,0.67,-0.53,1.17,
3.194,1.45,-1.58,1.38,0.69,-0.53,1.15,
3.194,1.45,-1.58,1.38,0.70,-0.52,1.14,
3.195,1.45,-1.58,1.38,0.71,-0.51,1.12,
3.195,1.45,-1.58,1.38,0.73,-0.50,1.10,
3.195,1.45,-1.58,1.38,0.74,-0.49,1.09,
3.195,1.51,-1.67,1.26,0.74,-0.49,1.09,
3.195,1.51,-1.67,1.26,0.75,-0.48,1.07,
3.196,1.51,-1.67,1.26,0.76,-0.46,1.05,
3.199,1.51,-1.67,1.26,0.77,-0.44,1.03,
3.199,1.51,-1.67,1.26,0.78,-0.43,1.02,
3.199,1.51,-1.67,1.26,0.79,-0.41,1.00,
3.199,1.57,-1.77,0.93,0.79,-0.41,1.00,
3.2,1.57,-1.77,0.93,0.79,-0.38,0.98,
3.201,1.57,-1.77,0.93,0.80,-0.36,0.96,
3.206,1.57,-1.77,0.93,0.80,-0.32,0.93,
3.207,1.57,-1.77,0.93,0.80,-0.31,0.92,
3.207,1.57,-1.77,0.93,0.80,-0.28,0.91,
3.21,1.47,-1.80,0.32,0.80,-0.28,0.91,
3.21,1.47,-1.80,0.32,0.80,-0.26,0.89,
3.211,1.47,-1.80,0.32,0.79,-0.24,0.87,
3.213,1.47,-1.80,0.32,0.78,-0.21,0.86,
3.216,1.47,-1.80,0.32,0.77,-0.19,0.84,
3.217,1.47,-1.80,0.32,0.76,-0.17,0.82,
3.219,1.44,-1.82,-0.30,0.76,-0.17,0.82,
3.219,1.44,-1.82,-0.30,0.75,-0.15,0.80,
3.222,1.44,-1.82,-0.30,0.74,-0.13,0.78,
3.223,1.44,-1.82,-0.30,0.72,-0.11,0.76,
3.233,1.44,-1.82,-0.30,0.71,-0.09,0.75,
3.234,1.44,-1.82,-0.30,0.69,-0.07,0.73,
3.235,1.33,-1.77,-0.91,0.69,-0.07,0.73,
3.235,1.33,-1.77,-0.91,0.67,-0.05,0.71,
3.235,1.33,-1.77,-0.91,0.65,-0.03,0.69,
3.235,1.33,-1.77,-0.91,0.63,-0.02,0.67,
3.235,1.33,-1.77,-0.91,0.61,0.00,0.65,
3.237,1.33,-1.77,-0.91,0.60,0.02,0.64,
3.24,1.24,-1.78,-1.37,0.60,0.02,0.64,
3.241,1.24,-1.78,-1.37,0.58,0.03,0.62,
3.241,1.24,-1.78,-1.37,0.56,0.05,0.60,
3.244,1.24,-1.78,-1.37,0.54,0.06,0.58,
3.245,1.24,-1.78,-1.37,0.52,0.07,0.57,
3.247,1.24,-1.78,-1.37,0.50,0.08,0.55,
3.249,1.05,-1.76,-1.76,0.50,0.08,0.55,
3.249,1.05,-1.76,-1.76,0.48,0.09,0.54,
3.251,1.05,-1.76,-1.76,0.46,0.10,0.52,
3.253,1.05,-1.76,-1.76,0.43,0.11,0.50,
3.255,1.05,-1.76,-1.76,0.43,0.11,0.49,
3.257,1.05,-1.76,-1.76,0.41,0.11,0.48,
3.259,0.92,-1.76,-2.03,0.41,0.11,0.48,
3.259,0.92,-1.76,-2.03,0.39,0.12,0.46,
3.261,0.92,-1.76,-2.03,0.37,0.12,0.44,
3.263,0.92,-1.76,-2.03,0.36,0.12,0.43,
3.265,0.92,-1.76,-2.03,0.34,0.12,0.42,
3.267,0.92,-1.76,-2.03,0.33,0.12,0.40,
3.27,0.82,-1.70,-2.25,0.33,0.12,0.40,
3.27,0.82,-1.70,-2.25,0.31,0.12,0.38,
3.273,0.82,-1.70,-2.25,0.30,0.12,0.37,
3.274,0.82,-1.70,-2.25,0.27,0.11,0.35,
3.292,0.82,-1.70,-2.25,0.27,0.11,0.34,
3.292,0.82,-1.70,-2.25,0.24,0.11,0.32,
3.293,0.78,-1.65,-2.47,0.24,0.11,0.32,
3.293,0.78,-1.65,-2.47,0.23,0.11,0.31,
3.293,0.78,-1.65,-2.47,0.21,0.12,0.29,
3.293,0.78,-1.65,-2.47,0.19,0.12,0.27,
3.294,0.78,-1.65,-2.47,0.18,0.12,0.26,
3.294,0.78,-1.65,-2.47,0.16,0.12,0.24,
3.294,0.88,-1.56,-2.64,0.16,0.12,0.24,
3.294,0.88,-1.56,-2.64,0.14,0.11,0.22,
3.295,0.88,-1.56,-2.64,0.12,0.11,0.20,
3.295,0.88,-1.56,-2.64,0.09,0.11,0.16,
3.295,0.88,-1.56,-2.64,0.09,0.10,0.14,
3.298,0.88,-1.56,-2.64,0.07,0.11,0.12,
3.307,1.14,-1.61,-2.63,0.07,0.11,0.12,
3.308,1.14,-1.61,-2.63,0.05,0.11,0.09,
3.308,1.14,-1.61,-2.63,0.03,0.11,0.06,
3.308,1.14,-1.61,-2.63,0.01,0.11,0.02,
3.308,1.14,-1.61,-2.63,0.01,0.12,0.01,
3.309,1.14,-1.61,-2.63,-0.01,0.12,-0.01,
3.312,0.99,-1.56,-2.37,-0.01,0.12,-0.01,
3.312,0.99,-1.56,-2.37,-0.02,0.13,-0.04,
3.312,0.99,-1.56,-2.37,-0.03,0.14,-0.06,
3.313,0.99,-1.56,-2.37,-0.04,0.16,-0.08,
3.316,0.99,-1.56,-2.37,-0.05,0.17,-0.09,
3.319,0.99,-1.56,-2.37,-0.05,0.18,-0.11,
3.319,0.69,-1.59,-1.98,-0.05,0.18,-0.11,
3.32,0.69,-1.59,-1.98,-0.06,0.20,-0.12,
3.326,0.69,-1.59,-1.98,-0.06,0.22,-0.14,
3.326,0.69,-1.59,-1.98,-0.06,0.23,-0.15,
3.327,0.69,-1.59,-1.98,-0.07,0.24,-0.15,
3.329,0.69,-1.59,-1.98,-0.07,0.26,-0.16,
3.329,0.30,-1.60,-1.80,-0.07,0.26,-0.16,
3.334,0.30,-1.60,-1.80,-0.07,0.28,-0.16,
3.334,0.30,-1.60,-1.80,-0.08,0.29,-0.17,
3.335,0.30,-1.60,-1.80,-0.08,0.30,-0.17,
3.335,0.30,-1.60,-1.80,-0.08,0.30,-0.17,
3.34,0.30,-1.60,-1.80,-0.09,0.31,-0.17,
3.342,-0.06,-1.57,-1.80,-0.09,0.31,-0.17,
3.342,-0.06,-1.57,-1.80,-0.09,0.32,-0.17,
3.343,-0.06,-1.57,-1.80,-0.09,0.33,-0.16,
3.343,-0.06,-1.57,-1.80,-0.10,0.33,-0.16,
3.345,-0.06,-1.57,-1.80,-0.10,0.33,-0.16,
3.347,-0.06,-1.57,-1.80,-0.10,0.33,-0.15,
3.349,-0.29,-1.44,-1.82,-0.10,0.33,-0.15,
3.35,-0.29,-1.44,-1.82,-0.11,0.33,-0.15,
3.351,-0.29,-1.44,-1.82,-0.11,0.33,-0.14,
3.353,-0.29,-1.44,-1.82,-0.11,0.33,-0.14,
3.355,-0.29,-1.44,-1.82,-0.11,0.33,-0.14,
3.357,-0.29,-1.44,-1.82,-0.10,0.33,-0.13,
3.361,-0.42,-1.24,-1.80,-0.10,0.33,-0.13,
3.361,-0.42,-1.24,-1.80,-0.11,0.33,-0.13,
3.361,-0.42,-1.24,-1.80,-0.10,0.32,-0.12,
3.363,-0.42,-1.24,-1.80,-0.10,0.31,-0.12,
3.365,-0.42,-1.24,-1.80,-0.10,0.31,-0.12,
3.367,-0.42,-1.24,-1.80,-0.09,0.30,-0.12,
3.369,-0.39,-1.05,-1.75,-0.09,0.30,-0.12,
3.369,-0.39,-1.05,-1.75,-0.09,0.29,-0.12,
3.372,-0.39,-1.05,-1.75,-0.09,0.28,-0.12,
3.373,-0.39,-1.05,-1.75,-0.08,0.26,-0.12,
3.375,-0.39,-1.05,-1.75,-0.08,0.25,-0.12,
3.377,-0.39,-1.05,-1.75,-0.07,0.24,-0.12,
3.379,-0.35,-0.85,-1.66,-0.07,0.24,-0.12,
3.379,-0.35,-0.85,-1.66,-0.06,0.22,-0.12,
3.381,-0.35,-0.85,-1.66,-0.06,0.21,-0.12,
3.382,-0.35,-0.85,-1.66,-0.05,0.19,-0.12,
3.385,-0.35,-0.85,-1.66,-0.04,0.18,-0.12,
3.387,-0.35,-0.85,-1.66,-0.04,0.16,-0.12,
3.389,-0.36,-0.69,-1.48,-0.04,0.16,-0.12,
3.389,-0.36,-0.69,-1.48,-0.03,0.15,-0.12,
3.395,-0.36,-0.69,-1.48,-0.02,0.14,-0.12,
3.396,-0.36,-0.69,-1.48,-0.01,0.13,-0.12,
3.396,-0.36,-0.69,-1.48,-0.01,0.12,-0.12,
3.396,-0.36,-0.69,-1.48,0.00,0.11,-0.12,
3.399,-0.43,-0.59,-1.23,0.00,0.11,-0.12,
3.399,-0.43,-0.59,-1.23,0.01,0.11,-0.12,
3.402,-0.43,-0.59,-1.23,0.02,0.10,-0.11,
3.403,-0.43,-0.59,-1.23,0.02,0.10,-0.11,
3.406,-0.43,-0.59,-1.23,0.03,0.10,-0.10,
3.407,-0.43,-0.59,-1.23,0.04,0.11,-0.10,
3.409,-0.53,-0.61,-0.91,0.04,0.11,-0.10,
3.409,-0.53,-0.61,-0.91,0.05,0.11,-0.09,
3.411,-0.53,-0.61,-0.91,0.05,0.12,-0.08,
3.412,-0.53,-0.61,-0.91,0.07,0.13,-0.08,
3.414,-0.53,-0.61,-0.91,0.08,0.15,-0.06,
3.416,-0.53,-0.61,-0.91,0.10,0.16,-0.05,
3.419,-0.64,-0.71,-0.37,0.10,0.16,-0.05,
3.419,-0.64,-0.71,-0.37,0.12,0.18,-0.04,
3.421,-0.64,-0.71,-0.37,0.13,0.20,-0.03,
3.423,-0.64,-0.71,-0.37,0.16,0.23,-0.01,
3.425,-0.64,-0.71,-0.37,0.18,0.25,0.00,
3.427,-0.64,-0.71,-0.37,0.20,0.27,0.02,
3.43,-0.65,-0.74,0.02,0.20,0.27,0.02,
3.431,-0.65,-0.74,0.02,0.22,0.29,0.03,
3.431,-0.65,-0.74,0.02,0.24,0.32,0.05,
3.433,-0.65,-0.74,0.02,0.27,0.34,0.07,
3.435,-0.65,-0.74,0.02,0.29,0.36,0.08,
3.441,-0.65,-0.74,0.02,0.31,0.39,0.10,
3.441,-0.57,-0.70,0.05,0.31,0.39,0.10,
3.441,-0.57,-0.70,0.05,0.33,0.41,0.11,
3.457,-0.57,-0.70,0.05,0.35,0.43,0.12,
3.457,-0.57,-0.70,0.05,0.36,0.45,0.14,
3.458,-0.57,-0.70,0.05,0.38,0.47,0.15,
3.458,-0.57,-0.70,0.05,0.39,0.49,0.16,
3.458,-0.38,-0.59,-0.38,0.39,0.49,0.16,
3.458,-0.38,-0.59,-0.38,0.39,0.50,0.17,
3.459,-0.38,-0.59,-0.38,0.40,0.52,0.17,
3.459,-0.38,-0.59,-0.38,0.41,0.53,0.18,
3.459,-0.38,-0.59,-0.38,0.41,0.54,0.18,
3.459,-0.38,-0.59,-0.38,0.41,0.55,0.19,
3.46,-0.21,-0.48,-1.09,0.41,0.55,0.19,
3.46,-0.21,-0.48,-1.09,0.40,0.57,0.19,
3.463,-0.21,-0.48,-1.09,0.40,0.58,0.20,
3.464,-0.21,-0.48,-1.09,0.39,0.59,0.20,
3.465,-0.21,-0.48,-1.09,0.38,0.60,0.20,
3.467,-0.21,-0.48,-1.09,0.37,0.61,0.20,
3.469,-0.06,-0.39,-1.79,0.37,0.61,0.20,
3.469,-0.06,-0.39,-1.79,0.36,0.62,0.20,
3.471,-0.06,-0.39,-1.79,0.35,0.62,0.20,
3.473,-0.06,-0.39,-1.79,0.33,0.63,0.20,
3.475,-0.06,-0.39,-1.79,0.32,0.63,0.20,
3.477,-0.06,-0.39,-1.79,0.30,0.64,0.20,
3.479,0.08,-0.27,-2.39,0.30,0.64,0.20,
3.479,0.08,-0.27,-2.39,0.28,0.64,0.20,
3.481,0.08,-0.27,-2.39,0.27,0.64,0.20,
3.483,0.08,-0.27,-2.39,0.25,0.63,0.19,
3.484,0.08,-0.27,-2.39,0.23,0.63,0.19,
3.487,0.08,-0.27,-2.39,0.21,0.62,0.19,
3.492,0.22,-0.23,-2.80,0.21,0.62,0.19,
3.493,0.22,-0.23,-2.80,0.18,0.62,0.18,
3.493,0.22,-0.23,-2.80,0.16,0.61,0.18,
3.493,0.22,-0.23,-2.80,0.14,0.60,0.18,
3.495,0.22,-0.23,-2.80,0.12,0.59,0.17,
3.497,0.22,-0.23,-2.80,0.10,0.58,0.16,
3.499,0.53,-0.09,-3.03,0.10,0.58,0.16,
3.499,0.53,-0.09,-3.03,0.08,0.56,0.15,
3.501,0.53,-0.09,-3.03,0.06,0.55,0.14,
3.503,0.53,-0.09,-3.03,0.04,0.53,0.13,
3.505,0.53,-0.09,-3.03,0.03,0.52,0.11,
3.507,0.53,-0.09,-3.03,0.01,0.50,0.10,
3.509,0.79,0.03,-2.96,0.01,0.50,0.10,
3.51,0.79,0.03,-2.96,-0.01,0.48,0.08,
3.511,0.79,0.03,-2.96,-0.02,0.46,0.07,
3.513,0.79,0.03,-2.96,-0.04,0.43,0.05,
3.515,0.79,0.03,-2.96,-0.05,0.41,0.03,
3.517,0.79,0.03,-2.96,-0.06,0.39,0.02,
3.519,1.08,0.27,-2.72,-0.06,0.39,0.02,
3.519,1.08,0.27,-2.72,-0.07,0.38,-0.00,
3.521,1.08,0.27,-2.72,-0.08,0.36,-0.02,
3.523,1.08,0.27,-2.72,-0.10,0.35,-0.04,
3.525,1.08,0.27,-2.72,-0.11,0.34,-0.06,
3.528,1.08,0.27,-2.72,-0.12,0.34,-0.07,
3.531,1.17,0.34,-2.47,-0.12,0.34,-0.07,
3.531,1.17,0.34,-2.47,-0.13,0.34,-0.09,
3.532,1.17,0.34,-2.47,-0.14,0.34,-0.10,
3.534,1.17,0.34,-2.47,-0.15,0.34,-0.12,
3.535,1.17,0.34,-2.47,-0.17,0.35,-0.13,
3.538,1.17,0.34,-2.47,-0.18,0.35,-0.14,
3.54,1.20,0.40,-2.36,-0.18,0.35,-0.14,
3.542,1.20,0.40,-2.36,-0.19,0.36,-0.16,
3.546,1.20,0.40,-2.36,-0.21,0.37,-0.17,
3.546,1.20,0.40,-2.36,-0.23,0.37,-0.18,
3.546,1.20,0.40,-2.36,-0.24,0.38,-0.19,
3.547,1.20,0.40,-2.36,-0.26,0.39,-0.20,
3.549,1.18,0.38,-2.27,-0.26,0.39,-0.20,
3.55,1.18,0.38,-2.27,-0.28,0.40,-0.21,
3.554,1.18,0.38,-2.27,-0.30,0.42,-0.22,
3.554,1.18,0.38,-2.27,-0.32,0.43,-0.22,
3.556,1.18,0.38,-2.27,-0.34,0.45,-0.23,
3.562,1.18,0.38,-2.27,-0.36,0.46,-0.24,
3.565,1.11,0.43,-2.24,-0.36,0.46,-0.24,
3.566,1.11,0.43,-2.24,-0.38,0.48,-0.25,
3.566,1.11,0.43,-2.24,-0.41,0.50,-0.25,
3.567,1.11,0.43,-2.24,-0.43,0.51,-0.26,
3.567,1.11,0.43,-2.24,-0.46,0.53,-0.26,
3.573,1.11,0.43,-2.24,-0.48,0.55,-0.26,
3.573,1.02,0.40,-2.17,-0.48,0.55,-0.26,
3.574,1.02,0.40,-2.17,-0.51,0.57,-0.27,
3.574,1.02,0.40,-2.17,-0.53,0.59,-0.27,
3.574,1.02,0.40,-2.17,-0.55,0.60,-0.27,
3.575,1.02,0.40,-2.17,-0.58,0.62,-0.28,
3.577,1.02,0.40,-2.17,-0.60,0.64,-0.28,
3.579,0.98,0.47,-2.03,-0.60,0.64,-0.28,
3.58,0.98,0.47,-2.03,-0.62,0.65,-0.28,
3.584,0.98,0.47,-2.03,-0.64,0.66,-0.28,
3.585,0.98,0.47,-2.03,-0.66,0.68,-0.28,
3.611,0.98,0.47,-2.03,-0.68,0.69,-0.29,
3.612,0.98,0.47,-2.03,-0.69,0.70,-0.28,
3.612,0.86,0.50,-1.73,-0.69,0.70,-0.28,
3.612,0.86,0.50,-1.73,-0.70,0.71,-0.28,
3.612,0.86,0.50,-1.73,-0.72,0.72,-0.28,
3.613,0.86,0.50,-1.73,-0.73,0.73,-0.27,
3.613,0.86,0.50,-1.73,-0.74,0.73,-0.27,
3.613,0.86,0.50,-1.73,-0.74,0.74,-0.26,
3.614,0.61,0.55,-1.40,-0.74,0.74,-0.26,
3.614,0.61,0.55,-1.40,-0.75,0.75,-0.25,
3.614,0.61,0.55,-1.40,-0.75,0.75,-0.24,
3.614,0.61,0.55,-1.40,-0.76,0.76,-0.22,
3.615,0.61,0.55,-1.40,-0.76,0.76,-0.21,
3.615,0.61,0.55,-1.40,-0.77,0.77,-0.19,
3.637,0.21,0.53,-1.11,-0.77,0.77,-0.19,
3.638,0.21,0.53,-1.11,-0.77,0.78,-0.16,
3.638,0.21,0.53,-1.11,-0.77,0.78,-0.14,
3.638,0.21,0.53,-1.11,-0.77,0.78,-0.11,
3.638,0.21,0.53,-1.11,-0.77,0.78,-0.09,
3.639,0.21,0.53,-1.11,-0.77,0.78,-0.06,
3.639,-0.14,0.48,-0.92,-0.77,0.78,-0.06,
3.639,-0.14,0.48,-0.92,-0.77,0.78,-0.03,
3.64,-0.14,0.48,-0.92,-0.77,0.77,0.01,
3.64,-0.14,0.48,-0.92,-0.76,0.76,0.04,
3.64,-0.14,0.48,-0.92,-0.76,0.74,0.08,
3.64,-0.14,0.48,-0.92,-0.75,0.73,0.12,
3.641,-0.45,0.43,-0.55,-0.75,0.73,0.12,
3.641,-0.45,0.43,-0.55,-0.74,0.71,0.16,
3.641,-0.45,0.43,-0.55,-0.73,0.69,0.20,
3.641,-0.45,0.43,-0.55,-0.71,0.66,0.24,
3.642,-0.45,0.43,-0.55,-0.69,0.63,0.29,
3.642,-0.45,0.43,-0.55,-0.67,0.61,0.34,
3.642,-0.73,0.53,-0.05,-0.67,0.61,0.34,
3.642,-0.73,0.53,-0.05,-0.65,0.58,0.38,
3.643,-0.73,0.53,-0.05,-0.62,0.55,0.43,
3.643,-0.73,0.53,-0.05,-0.60,0.52,0.48,
3.649,-0.73,0.53,-0.05,-0.57,0.48,0.52,
3.649,-0.73,0.53,-0.05,-0.54,0.45,0.57,
3.65,-0.71,0.68,0.43,-0.54,0.45,0.57,
3.65,-0.71,0.68,0.43,-0.51,0.42,0.61,
3.652,-0.71,0.68,0.43,-0.48,0.39,0.65,
3.653,-0.71,0.68,0.43,-0.44,0.35,0.70,
3.655,-0.71,0.68,0.43,-0.40,0.32,0.74,
3.658,-0.71,0.68,0.43,-0.37,0.28,0.77,
3.66,-0.41,0.87,0.77,-0.37,0.28,0.77,
3.66,-0.41,0.87,0.77,-0.33,0.25,0.80,
3.662,-0.41,0.87,0.77,-0.29,0.22,0.84,
3.663,-0.41,0.87,0.77,-0.25,0.18,0.87,
3.665,-0.41,0.87,0.77,-0.20,0.15,0.90,
3.667,-0.41,0.87,0.77,-0.17,0.12,0.93,
3.67,-0.03,0.96,0.94,-0.17,0.12,0.93,
3.67,-0.03,0.96,0.94,-0.13,0.10,0.95,
3.672,-0.03,0.96,0.94,-0.09,0.07,0.98,
3.673,-0.03,0.96,0.94,-0.05,0.05,1.00,
3.676,-0.03,0.96,0.94,-0.01,0.03,1.03,
3.677,-0.03,0.96,0.94,0.03,0.00,1.05,
3.679,0.27,0.99,0.86,0.03,0.00,1.05,
3.679,0.27,0.99,0.86,0.06,-0.01,1.07,
3.681,0.27,0.99,0.86,0.09,-0.03,1.09,
3.683,0.27,0.99,0.86,0.12,-0.05,1.11,
3.684,0.27,0.99,0.86,0.15,-0.05,1.12,
3.688,0.27,0.99,0.86,0.18,-0.06,1.14,
3.697,0.50,0.82,0.56,0.18,-0.06,1.14,
3.697,0.50,0.82,0.56,0.21,-0.07,1.16,
3.697,0.50,0.82,0.56,0.23,-0.07,1.17,
3.697,0.50,0.82,0.56,0.26,-0.08,1.19,
3.697,0.50,0.82,0.56,0.28,-0.07,1.20,
3.698,0.50,0.82,0.56,0.30,-0.07,1.21,
3.699,0.66,0.63,0.26,0.30,-0.07,1.21,
3.699,0.66,0.63,0.26,0.32,-0.07,1.23,
3.701,0.66,0.63,0.26,0.34,-0.06,1.24,
3.707,0.66,0.63,0.26,0.35,-0.05,1.26,
3.708,0.66,0.63,0.26,0.37,-0.04,1.27,
3.708,0.66,0.63,0.26,0.39,-0.03,1.28,
3.71,0.67,0.39,-0.02,0.39,-0.03,1.28,
3.71,0.67,0.39,-0.02,0.41,-0.02,1.29,
3.711,0.67,0.39,-0.02,0.42,-0.00,1.31,
3.713,0.67,0.39,-0.02,0.44,0.01,1.32,
3.715,0.67,0.39,-0.02,0.45,0.02,1.33,
3.717,0.67,0.39,-0.02,0.46,0.03,1.34,
3.726,0.60,0.23,-0.26,0.46,0.03,1.34,
3.726,0.60,0.23,-0.26,0.47,0.04,1.36,
3.727,0.60,0.23,-0.26,0.49,0.05,1.37,
3.727,0.60,0.23,-0.26,0.49,0.05,1.38,
3.727,0.60,0.23,-0.26,0.50,0.06,1.39,
3.732,0.60,0.23,-0.26,0.50,0.06,1.40,
3.735,0.50,0.06,-0.55,0.50,0.06,1.40,
3.735,0.50,0.06,-0.55,0.50,0.06,1.41,
3.735,0.50,0.06,-0.55,0.50,0.06,1.42,
3.735,0.50,0.06,-0.55,0.49,0.07,1.43,
3.736,0.50,0.06,-0.55,0.49,0.07,1.44,
3.737,0.50,0.06,-0.55,0.48,0.07,1.45,
3.74,0.43,-0.07,-0.87,0.48,0.07,1.45,
3.741,0.43,-0.07,-0.87,0.47,0.07,1.46,
3.742,0.43,-0.07,-0.87,0.45,0.08,1.46,
3.743,0.43,-0.07,-0.87,0.44,0.07,1.47,
3.744,0.43,-0.07,-0.87,0.43,0.07,1.48,
3.746,0.43,-0.07,-0.87,0.42,0.07,1.48,
3.75,0.43,-0.22,-0.97,0.42,0.07,1.48,
3.75,0.43,-0.22,-0.97,0.40,0.07,1.48,
3.752,0.43,-0.22,-0.97,0.38,0.07,1.49,
3.755,0.43,-0.22,-0.97,0.36,0.07,1.49,
3.756,0.43,-0.22,-0.97,0.35,0.07,1.49,
3.757,0.43,-0.22,-0.97,0.34,0.07,1.48,
3.762,0.61,-0.31,-0.79,0.34,0.07,1.48,
3.763,0.61,-0.31,-0.79,0.32,0.08,1.48,
3.763,0.61,-0.31,-0.79,0.31,0.09,1.48,
3.764,0.61,-0.31,-0.79,0.30,0.10,1.47,
3.765,0.61,-0.31,-0.79,0.29,0.11,1.46,
3.767,0.61,-0.31,-0.79,0.28,0.12,1.45,
3.77,0.69,-0.35,-0.52,0.28,0.12,1.45,
3.77,0.69,-0.35,-0.52,0.27,0.13,1.44,
3.773,0.69,-0.35,-0.52,0.25,0.16,1.42,
3.775,0.69,-0.35,-0.52,0.25,0.16,1.42,
3.796,0.69,-0.35,-0.52,0.24,0.18,1.41,
3.796,0.69,-0.35,-0.52,0.23,0.19,1.39,
3.796,0.64,-0.37,-0.30,0.23,0.19,1.39,
3.796,0.64,-0.37,-0.30,0.22,0.21,1.38,
3.797,0.64,-0.37,-0.30,0.21,0.22,1.37,
3.797,0.64,-0.37,-0.30,0.19,0.24,1.36,
3.797,0.64,-0.37,-0.30,0.18,0.25,1.35,
3.798,0.64,-0.37,-0.30,0.16,0.27,1.34,
3.798,0.41,-0.34,-0.24,0.16,0.27,1.34,
3.798,0.41,-0.34,-0.24,0.14,0.28,1.33,
3.798,0.41,-0.34,-0.24,0.12,0.30,1.32,
3.799,0.41,-0.34,-0.24,0.10,0.31,1.31,
3.799,0.41,-0.34,-0.24,0.08,0.33,1.30,
3.799,0.41,-0.34,-0.24,0.05,0.35,1.29,
3.804,0.12,-0.19,-0.28,0.05,0.35,1.29,
3.804,0.12,-0.19,-0.28,0.03,0.37,1.29,
3.805,0.12,-0.19,-0.28,-0.00,0.39,1.28,
3.806,0.12,-0.19,-0.28,-0.03,0.40,1.27,
3.807,0.12,-0.19,-0.28,-0.06,0.42,1.26,
3.807,0.12,-0.19,-0.28,-0.10,0.43,1.26,
3.81,-0.19,-0.03,-0.37,-0.10,0.43,1.26,
3.811,-0.19,-0.03,-0.37,-0.13,0.44,1.25,
3.811,-0.19,-0.03,-0.37,-0.16,0.45,1.24,
3.813,-0.19,-0.03,-0.37,-0.20,0.46,1.23,
3.815,-0.19,-0.03,-0.37,-0.24,0.46,1.22,
3.817,-0.19,-0.03,-0.37,-0.27,0.46,1.22,
3.82,-0.57,0.10,-0.37,-0.27,0.46,1.22,
3.821,-0.57,0.10,-0.37,-0.31,0.46,1.21,
3.823,-0.57,0.10,-0.37,-0.36,0.45,1.20,
3.824,-0.57,0.10,-0.37,-0.40,0.43,1.20,
3.825,-0.57,0.10,-0.37,-0.44,0.42,1.19,
3.827,-0.57,0.10,-0.37,-0.49,0.40,1.19,
3.832,-0.93,0.20,-0.16,-0.49,0.40,1.19,
3.832,-0.93,0.20,-0.16,-0.52,0.38,1.19,
3.832,-0.93,0.20,-0.16,-0.57,0.35,1.19,
3.833,-0.93,0.20,-0.16,-0.61,0.32,1.19,
3.835,-0.93,0.20,-0.16,-0.65,0.28,1.19,
3.838,-0.93,0.20,-0.16,-0.69,0.25,1.18,
3.84,-1.24,0.28,0.40,-0.69,0.25,1.18,
3.84,-1.24,0.28,0.40,-0.72,0.21,1.18,
3.841,-1.24,0.28,0.40,-0.75,0.16,1.18,
3.843,-1.24,0.28,0.40,-0.78,0.12,1.18,
3.845,-1.24,0.28,0.40,-0.80,0.07,1.17,
3.847,-1.24,0.28,0.40,-0.83,0.02,1.17,
3.849,-1.31,0.16,1.43,-0.83,0.02,1.17,
3.85,-1.31,0.16,1.43,-0.84,-0.03,1.17,
3.851,-1.31,0.16,1.43,-0.86,-0.07,1.17,
3.858,-1.31,0.16,1.43,-0.86,-0.12,1.16,
3.858,-1.31,0.16,1.43,-0.87,-0.16,1.17,
3.859,-1.31,0.16,1.43,-0.87,-0.20,1.17,
3.86,-1.43,-0.12,2.75,-0.87,-0.20,1.17,
3.86,-1.43,-0.12,2.75,-0.86,-0.24,1.17,
3.861,-1.43,-0.12,2.75,-0.84,-0.27,1.17,
3.863,-1.43,-0.12,2.75,-0.83,-0.31,1.18,
3.9,-1.43,-0.12,2.75,-0.80,-0.33,1.18,
3.9,-1.43,-0.12,2.75,-0.78,-0.35,1.19,
3.9,-1.60,-0.42,4.04,-0.78,-0.35,1.19,
3.901,-1.60,-0.42,4.04,-0.75,-0.37,1.20,
3.901,-1.60,-0.42,4.04,-0.71,-0.38,1.20,
3.901,-1.60,-0.42,4.04,-0.67,-0.38,1.21,
3.901,-1.60,-0.42,4.04,-0.62,-0.38,1.23,
3.902,-1.60,-0.42,4.04,-0.58,-0.37,1.24,
3.903,-1.74,-0.78,5.20,-0.58,-0.37,1.24,
3.903,-1.74,-0.78,5.20,-0.53,-0.36,1.25,
3.903,-1.74,-0.78,5.20,-0.47,-0.34,1.26,
3.904,-1.74,-0.78,5.20,-0.41,-0.31,1.28,
3.904,-1.74,-0.78,5.20,-0.35,-0.27,1.29,
3.904,-1.74,-0.78,5.20,-0.30,-0.23,1.31,
3.904,-1.85,-1.05,5.71,-0.30,-0.23,1.31,
3.904,-1.85,-1.05,5.71,-0.24,-0.19,1.32,
3.905,-1.85,-1.05,5.71,-0.18,-0.14,1.34,
3.905,-1.85,-1.05,5.71,-0.12,-0.09,1.36,
3.905,-1.85,-1.05,5.71,-0.07,-0.04,1.38,
3.905,-1.85,-1.05,5.71,-0.02,0.01,1.39,
3.905,-2.09,-1.27,5.45,-0.02,0.01,1.39,
3.906,-2.09,-1.27,5.45,0.03,0.05,1.41,
3.906,-2.09,-1.27,5.45,0.08,0.10,1.43,
3.906,-2.09,-1.27,5.45,0.12,0.14,1.46,
3.906,-2.09,-1.27,5.45,0.16,0.17,1.48,
3.909,-2.09,-1.27,5.45,0.19,0.20,1.50,
3.909,-2.39,-1.09,4.41,0.19,0.20,1.50,
3.909,-2.39,-1.09,4.41,0.22,0.22,1.52,
3.911,-2.39,-1.09,4.41,0.24,0.23,1.54,
3.913,-2.39,-1.09,4.41,0.27,0.25,1.56,
3.915,-2.39,-1.09,4.41,0.29,0.26,1.58,
3.917,-2.39,-1.09,4.41,0.30,0.26,1.60,
3.925,-2.43,-1.02,3.17,0.30,0.26,1.60,
3.926,-2.43,-1.02,3.17,0.32,0.27,1.61,
3.927,-2.43,-1.02,3.17,0.33,0.27,1.63,
3.927,-2.43,-1.02,3.17,0.34,0.27,1.64,
3.928,-2.43,-1.02,3.17,0.35,0.26,1.65,
3.928,-2.43,-1.02,3.17,0.36,0.25,1.66,
3.932,-2.18,-0.86,2.02,0.36,0.25,1.66,
3.932,-2.18,-0.86,2.02,0.36,0.24,1.67,
3.933,-2.18,-0.86,2.02,0.36,0.22,1.68,
3.934,-2.18,-0.86,2.02,0.36,0.20,1.68,
3.936,-2.18,-0.86,2.02,0.36,0.18,1.69,
3.937,-2.18,-0.86,2.02,0.36,0.15,1.69,
3.939,-1.89,-0.66,1.25,0.36,0.15,1.69,
3.939,-1.89,-0.66,1.25,0.36,0.13,1.69,
3.96,-1.89,-0.66,1.25,0.36,0.11,1.69,
3.96,-1.89,-0.66,1.25,0.37,0.08,1.68,
3.96,-1.89,-0.66,1.25,0.37,0.06,1.68,
3.961,-1.89,-0.66,1.25,0.37,0.04,1.67,
3.961,-1.49,-0.46,0.80,0.37,0.04,1.67,
3.961,-1.49,-0.46,0.80,0.37,0.02,1.66,
3.962,-1.49,-0.46,0.80,0.38,-0.00,1.65,
3.962,-1.49,-0.46,0.80,0.38,-0.02,1.64,
3.962,-1.49,-0.46,0.80,0.39,-0.04,1.64,
3.962,-1.49,-0.46,0.80,0.39,-0.06,1.62,
3.967,-1.11,-0.38,0.41,0.39,-0.06,1.62,
3.967,-1.11,-0.38,0.41,0.39,-0.07,1.61,
3.968,-1.11,-0.38,0.41,0.39,-0.09,1.60,
3.968,-1.11,-0.38,0.41,0.40,-0.10,1.58,
3.968,-1.11,-0.38,0.41,0.39,-0.11,1.57,
3.971,-1.11,-0.38,0.41,0.39,-0.11,1.55,
3.972,-0.79,-0.26,0.07,0.39,-0.11,1.55,
3.972,-0.79,-0.26,0.07,0.39,-0.11,1.53,
3.972,-0.79,-0.26,0.07,0.39,-0.11,1.52,
3.973,-0.79,-0.26,0.07,0.38,-0.11,1.50,
3.975,-0.79,-0.26,0.07,0.38,-0.10,1.48,
3.977,-0.79,-0.26,0.07,0.37,-0.09,1.46,
3.979,-0.62,-0.22,-0.29,0.37,-0.09,1.46,
3.979,-0.62,-0.22,-0.29,0.36,-0.07,1.45,
3.981,-0.62,-0.22,-0.29,0.35,-0.05,1.43,
3.982,-0.62,-0.22,-0.29,0.34,-0.04,1.42,
3.986,-0.62,-0.22,-0.29,0.33,-0.01,1.40,
3.987,-0.62,-0.22,-0.29,0.32,0.01,1.39,
3.99,-0.49,-0.26,-0.56,0.32,0.01,1.39,
3.99,-0.49,-0.26,-0.56,0.31,0.04,1.37,
3.991,-0.49,-0.26,-0.56,0.30,0.07,1.36,
3.993,-0.49,-0.26,-0.56,0.29,0.10,1.34,
3.995,-0.49,-0.26,-0.56,0.27,0.14,1.33,
3.998,-0.49,-0.26,-0.56,0.26,0.17,1.31,
3.999,-0.48,-0.30,-0.81,0.26,0.17,1.31,
4.0,-0.48,-0.30,-0.81,0.25,0.20,1.30,
4.004,-0.48,-0.30,-0.81,0.23,0.23,1.28,
4.004,-0.48,-0.30,-0.81,0.22,0.26,1.27,
4.005,-0.48,-0.30,-0.81,0.21,0.29,1.25,
4.009,-0.48,-0.30,-0.81,0.19,0.32,1.23,
4.009,-0.47,-0.30,-0.98,0.19,0.32,1.23,
4.01,-0.47,-0.30,-0.98,0.18,0.35,1.22,
4.011,-0.47,-0.30,-0.98,0.17,0.37,1.20,
4.012,-0.47,-0.30,-0.98,0.16,0.39,1.19,
4.015,-0.47,-0.30,-0.98,0.14,0.41,1.17,
4.017,-0.47,-0.30,-0.98,0.13,0.42,1.15,
4.022,-0.52,-0.28,-1.11,0.13,0.42,1.15,
4.023,-0.52,-0.28,-1.11,0.12,0.43,1.14,
4.023,-0.52,-0.28,-1.11,0.12,0.44,1.12,
4.023,-0.52,-0.28,-1.11,0.11,0.45,1.11,
4.025,-0.52,-0.28,-1.11,0.10,0.45,1.09,
4.027,-0.52,-0.28,-1.11,0.09,0.45,1.07,
4.029,-0.55,-0.29,-1.07,0.09,0.45,1.07,
4.029,-0.55,-0.29,-1.07,0.09,0.45,1.06,
4.031,-0.55,-0.29,-1.07,0.08,0.44,1.04,
4.032,-0.55,-0.29,-1.07,0.08,0.43,1.02,
4.035,-0.55,-0.29,-1.07,0.08,0.42,1.01,
4.036,-0.55,-0.29,-1.07,0.08,0.41,0.99,
4.039,-0.56,-0.23,-0.89,0.08,0.41,0.99,
4.039,-0.56,-0.23,-0.89,0.08,0.40,0.97,
4.041,-0.56,-0.23,-0.89,0.08,0.38,0.95,
4.043,-0.56,-0.23,-0.89,0.09,0.37,0.94,
4.048,-0.56,-0.23,-0.89,0.09,0.35,0.92,
4.05,-0.56,-0.23,-0.89,0.09,0.33,0.90,
4.051,-0.60,-0.22,-0.70,0.09,0.33,0.90,
4.051,-0.60,-0.22,-0.70,0.09,0.32,0.89,
4.053,-0.60,-0.22,-0.70,0.10,0.30,0.86,
4.061,-0.60,-0.22,-0.70,0.11,0.29,0.85,
4.061,-0.60,-0.22,-0.70,0.11,0.28,0.85,
4.062,-0.60,-0.22,-0.70,0.11,0.27,0.83,
4.063,-0.71,-0.27,-0.57,0.11,0.27,0.83,
4.065,-0.71,-0.27,-0.57,0.12,0.27,0.82,
4.067,-0.71,-0.27,-0.57,0.12,0.26,0.81,
4.067,-0.71,-0.27,-0.57,0.13,0.25,0.80,
4.068,-0.71,-0.27,-0.57,0.13,0.25,0.78,
4.068,-0.71,-0.27,-0.57,0.13,0.25,0.77,
4.074,-0.74,-0.30,-0.53,0.13,0.25,0.77,
4.075,-0.74,-0.30,-0.53,0.14,0.25,0.76,
4.076,-0.74,-0.30,-0.53,0.14,0.25,0.75,
4.076,-0.74,-0.30,-0.53,0.14,0.25,0.74,
4.076,-0.74,-0.30,-0.53,0.14,0.25,0.73,
4.077,-0.74,-0.30,-0.53,0.14,0.26,0.72,
4.081,-0.78,-0.37,-0.57,0.14,0.26,0.72,
4.081,-0.78,-0.37,-0.57,0.14,0.27,0.71,
4.081,-0.78,-0.37,-0.57,0.13,0.28,0.70,
4.083,-0.78,-0.37,-0.57,0.13,0.29,0.69,
4.085,-0.78,-0.37,-0.57,0.13,0.29,0.68,
4.087,-0.78,-0.37,-0.57,0.12,0.31,0.67,
4.09,-0.78,-0.42,-0.65,0.12,0.31,0.67,
4.09,-0.78,-0.42,-0.65,0.11,0.32,0.66,
4.091,-0.78,-0.42,-0.65,0.11,0.33,0.66,
4.093,-0.78,-0.42,-0.65,0.10,0.35,0.65,
4.095,-0.78,-0.42,-0.65,0.09,0.36,0.64,
4.097,-0.78,-0.42,-0.65,0.08,0.38,0.64,
4.099,-0.84,-0.43,-0.74,0.08,0.38,0.64,
4.1,-0.84,-0.43,-0.74,0.07,0.39,0.63,
4.103,-0.84,-0.43,-0.74,0.06,0.41,0.62,
4.103,-0.84,-0.43,-0.74,0.05,0.43,0.62,
4.104,-0.84,-0.43,-0.74,0.04,0.43,0.61,
4.107,-0.84,-0.43,-0.74,0.03,0.44,0.61,
4.129,-0.76,-0.41,-0.77,0.03,0.44,0.61,
4.13,-0.76,-0.41,-0.77,0.02,0.45,0.60,
4.13,-0.76,-0.41,-0.77,0.01,0.46,0.60,
4.131,-0.76,-0.41,-0.77,-0.00,0.47,0.58,
4.131,-0.76,-0.41,-0.77,-0.01,0.47,0.57,
4.131,-0.76,-0.41,-0.77,-0.02,0.47,0.57,
4.132,-0.58,-0.34,-0.62,-0.02,0.47,0.57,
4.132,-0.58,-0.34,-0.62,-0.03,0.47,0.55,
4.133,-0.58,-0.34,-0.62,-0.03,0.47,0.54,
4.133,-0.58,-0.34,-0.62,-0.03,0.47,0.53,
4.134,-0.58,-0.34,-0.62,-0.04,0.48,0.51,
4.134,-0.58,-0.34,-0.62,-0.04,0.48,0.50,
4.134,-0.33,-0.25,-0.36,-0.04,0.48,0.50,
4.135,-0.33,-0.25,-0.36,-0.04,0.48,0.48,
4.135,-0.33,-0.25,-0.36,-0.04,0.48,0.47,
4.136,-0.33,-0.25,-0.36,-0.04,0.48,0.45,
4.136,-0.33,-0.25,-0.36,-0.03,0.48,0.44,
4.137,-0.33,-0.25,-0.36,-0.03,0.48,0.42,
4.149,-0.25,-0.20,-0.14,-0.03,0.48,0.42,
4.15,-0.25,-0.20,-0.14,-0.03,0.48,0.41,
4.15,-0.25,-0.20,-0.14,-0.03,0.49,0.39,
4.15,-0.25,-0.20,-0.14,-0.02,0.49,0.38,
4.15,-0.25,-0.20,-0.14,-0.02,0.49,0.37,
4.151,-0.25,-0.20,-0.14,-0.02,0.50,0.35,
4.151,-0.21,-0.18,-0.07,-0.02,0.50,0.35,
4.151,-0.21,-0.18,-0.07,-0.02,0.50,0.34,
4.151,-0.21,-0.18,-0.07,-0.02,0.51,0.33,
4.16,-0.21,-0.18,-0.07,-0.02,0.51,0.32,
4.16,-0.21,-0.18,-0.07,-0.02,0.52,0.31,
4.161,-0.21,-0.18,-0.07,-0.02,0.53,0.30,
4.161,-0.23,-0.19,-0.14,-0.02,0.53,0.30,
4.161,-0.23,-0.19,-0.14,-0.02,0.54,0.29,
4.161,-0.23,-0.19,-0.14,-0.02,0.55,0.28,
4.166,-0.23,-0.19,-0.14,-0.03,0.56,0.28,
4.166,-0.23,-0.19,-0.14,-0.02,0.58,0.27,
4.188,-0.23,-0.19,-0.14,-0.03,0.59,0.27,
4.188,-0.28,-0.19,-0.30,-0.03,0.59,0.27,
4.189,-0.28,-0.19,-0.30,-0.03,0.61,0.26,
4.189,-0.28,-0.19,-0.30,-0.03,0.63,0.26,
4.189,-0.28,-0.19,-0.30,-0.04,0.64,0.26,
4.189,-0.28,-0.19,-0.30,-0.04,0.66,0.25,
4.19,-0.28,-0.19,-0.30,-0.05,0.67,0.25,
4.19,-0.33,-0.17,-0.48,-0.05,0.67,0.25,
4.19,-0.33,-0.17,-0.48,-0.05,0.68,0.25,
4.19,-0.33,-0.17,-0.48,-0.06,0.70,0.25,
4.19,-0.33,-0.17,-0.48,-0.06,0.71,0.24,
4.191,-0.33,-0.17,-0.48,-0.07,0.72,0.24,
4.191,-0.33,-0.17,-0.48,-0.07,0.73,0.24,
4.193,-0.34,-0.12,-0.63,-0.07,0.73,0.24,
4.193,-0.34,-0.12,-0.63,-0.08,0.74,0.24,
4.194,-0.34,-0.12,-0.63,-0.08,0.75,0.24,
4.194,-0.34,-0.12,-0.63,-0.09,0.75,0.24,
4.195,-0.34,-0.12,-0.63,-0.09,0.76,0.23,
4.197,-0.34,-0.12,-0.63,-0.09,0.76,0.23,
4.199,-0.30,-0.03,-0.73,-0.09,0.76,0.23,
4.199,-0.30,-0.03,-0.73,-0.09,0.76,0.23,
4.202,-0.30,-0.03,-0.73,-0.09,0.76,0.23,
4.204,-0.30,-0.03,-0.73,-0.09,0.76,0.23,
4.206,-0.30,-0.03,-0.73,-0.09,0.75,0.22,
4.209,-0.30,-0.03,-0.73,-0.09,0.75,0.22,
4.209,-0.22,0.08,-0.73,-0.09,0.75,0.22,
4.21,-0.22,0.08,-0.73,-0.08,0.74,0.22,
4.211,-0.22,0.08,-0.73,-0.08,0.74,0.21,
4.213,-0.22,0.08,-0.73,-0.08,0.73,0.21,
4.215,-0.22,0.08,-0.73,-0.08,0.72,0.20,
4.223,-0.22,0.08,-0.73,-0.07,0.71,0.20,
4.223,-0.16,0.20,-0.78,-0.07,0.71,0.20,
4.224,-0.16,0.20,-0.78,-0.07,0.69,0.19,
4.224,-0.16,0.20,-0.78,-0.07,0.68,0.19,
4.224,-0.16,0.20,-0.78,-0.07,0.66,0.18,
4.23,-0.16,0.20,-0.78,-0.07,0.65,0.18,
4.231,-0.16,0.20,-0.78,-0.07,0.63,0.17,
4.232,-0.12,0.31,-0.80,-0.07,0.63,0.17,
4.232,-0.12,0.31,-0.80,-0.07,0.62,0.17,
4.232,-0.12,0.31,-0.80,-0.07,0.60,0.16,
4.235,-0.12,0.31,-0.80,-0.07,0.59,0.16,
4.235,-0.12,0.31,-0.80,-0.07,0.57,0.16,
4.24,-0.12,0.31,-0.80,-0.07,0.56,0.15,
4.242,-0.08,0.43,-0.80,-0.07,0.56,0.15,
4.242,-0.08,0.43,-0.80,-0.07,0.55,0.14,
4.243,-0.08,0.43,-0.80,-0.07,0.54,0.14,
4.243,-0.08,0.43,-0.80,-0.07,0.53,0.14,
4.245,-0.08,0.43,-0.80,-0.07,0.53,0.14,
4.248,-0.08,0.43,-0.80,-0.07,0.52,0.13,
4.249,-0.08,0.42,-0.72,-0.07,0.52,0.13,
4.25,-0.08,0.42,-0.72,-0.07,0.51,0.13,
4.252,-0.08,0.42,-0.72,-0.07,0.51,0.13,
4.253,-0.08,0.42,-0.72,-0.07,0.51,0.13,
4.255,-0.08,0.42,-0.72,-0.07,0.51,0.13,
4.257,-0.08,0.42,-0.72,-0.07,0.51,0.14,
4.26,-0.06,0.44,-0.71,-0.07,0.51,0.14,
4.26,-0.06,0.44,-0.71,-0.08,0.52,0.14,
4.262,-0.06,0.44,-0.71,-0.08,0.52,0.14,
4.263,-0.06,0.44,-0.71,-0.08,0.52,0.14,
4.265,-0.06,0.44,-0.71,-0.08,0.53,0.14,
4.271,-0.06,0.44,-0.71,-0.08,0.53,0.15,
4.271,-0.04,0.46,-0.59,-0.08,0.53,0.15,
4.272,-0.04,0.46,-0.59,-0.07,0.54,0.15,
4.272,-0.04,0.46,-0.59,-0.07,0.54,0.15,
4.273,-0.04,0.46,-0.59,-0.07,0.55,0.15,
4.292,-0.04,0.46,-0.59,-0.07,0.55,0.16,
4.293,-0.04,0.46,-0.59,-0.06,0.55,0.16,
4.293,-0.03,0.51,-0.50,-0.06,0.55,0.16,
4.293,-0.03,0.51,-0.50,-0.06,0.56,0.16,
4.293,-0.03,0.51,-0.50,-0.06,0.56,0.17,
4.293,-0.03,0.51,-0.50,-0.06,0.56,0.17,
4.294,-0.03,0.51,-0.50,-0.05,0.56,0.17,
4.294,-0.03,0.51,-0.50,-0.05,0.56,0.18,
4.294,0.03,0.53,-0.47,-0.05,0.56,0.18,
4.295,0.03,0.53,-0.47,-0.05,0.56,0.18,
4.295,0.03,0.53,-0.47,-0.05,0.56,0.19,
4.295,0.03,0.53,-0.47,-0.05,0.56,0.19,
4.311,0.03,0.53,-0.47,-0.04,0.56,0.19,
4.311,0.03,0.53,-0.47,-0.04,0.56,0.20,
4.311,0.05,0.62,-0.40,-0.04,0.56,0.20,
4.311,0.05,0.62,-0.40,-0.04,0.56,0.20,
4.312,0.05,0.62,-0.40,-0.03,0.56,0.20,
4.312,0.05,0.62,-0.40,-0.03,0.56,0.20,
4.312,0.05,0.62,-0.40,-0.03,0.55,0.21,
4.312,0.05,0.62,-0.40,-0.02,0.55,0.21,
4.312,0.15,0.69,-0.28,-0.02,0.55,0.21,
4.312,0.15,0.69,-0.28,-0.01,0.54,0.21,
4.313,0.15,0.69,-0.28,-0.00,0.54,0.21,
4.315,0.15,0.69,-0.28,0.00,0.53,0.21,
4.316,0.15,0.69,-0.28,0.01,0.52,0.21,
4.317,0.15,0.69,-0.28,0.02,0.52,0.21,
4.32,0.27,0.74,-0.12,0.02,0.52,0.21,
4.321,0.27,0.74,-0.12,0.03,0.51,0.21,
4.321,0.27,0.74,-0.12,0.04,0.50,0.21,
4.324,0.27,0.74,-0.12,0.05,0.50,0.21,
4.325,0.27,0.74,-0.12,0.06,0.49,0.21,
4.327,0.27,0.74,-0.12,0.07,0.48,0.21,
4.329,0.34,0.76,-0.06,0.07,0.48,0.21,
4.329,0.34,0.76,-0.06,0.09,0.47,0.21,
4.331,0.34,0.76,-0.06,0.09,0.47,0.20,
4.333,0.34,0.76,-0.06,0.11,0.46,0.20,
4.338,0.34,0.76,-0.06,0.12,0.44,0.20,
4.338,0.34,0.76,-0.06,0.13,0.44,0.20,
4.339,0.34,0.75,-0.22,0.13,0.44,0.20,
4.34,0.34,0.75,-0.22,0.14,0.43,0.21,
4.341,0.34,0.75,-0.22,0.14,0.42,0.20,
4.342,0.34,0.75,-0.22,0.15,0.41,0.20,
4.344,0.34,0.75,-0.22,0.15,0.40,0.20,
4.347,0.34,0.75,-0.22,0.16,0.39,0.21,
4.349,0.33,0.78,-0.67,0.16,0.39,0.21,
4.349,0.33,0.78,-0.67,0.16,0.39,0.21,
4.351,0.33,0.78,-0.67,0.16,0.38,0.21,
4.353,0.33,0.78,-0.67,0.16,0.38,0.21,
4.354,0.33,0.78,-0.67,0.15,0.37,0.21,
4.357,0.33,0.78,-0.67,0.15,0.36,0.20,
4.36,0.35,0.97,-1.27,0.15,0.36,0.20,
4.361,0.35,0.97,-1.27,0.14,0.36,0.20,
4.361,0.35,0.97,-1.27,0.14,0.35,0.20,
4.364,0.35,0.97,-1.27,0.13,0.34,0.20,
4.365,0.35,0.97,-1.27,0.12,0.34,0.20,
4.367,0.35,0.97,-1.27,0.10,0.33,0.20,
4.373,0.35,1.08,-1.78,0.10,0.33,0.20,
4.373,0.35,1.08,-1.78,0.09,0.33,0.19,
4.373,0.35,1.08,-1.78,0.08,0.33,0.19,
4.373,0.35,1.08,-1.78,0.06,0.32,0.19,
4.375,0.35,1.08,-1.78,0.04,0.32,0.19,
4.377,0.35,1.08,-1.78,0.03,0.31,0.19,
4.379,0.26,1.11,-2.16,0.03,0.31,0.19,
4.379,0.26,1.11,-2.16,0.01,0.31,0.19,
4.381,0.26,1.11,-2.16,-0.01,0.30,0.19,
4.385,0.26,1.11,-2.16,-0.03,0.30,0.19,
4.385,0.26,1.11,-2.16,-0.05,0.29,0.19,
4.387,0.26,1.11,-2.16,-0.07,0.28,0.19,
4.389,0.20,0.92,-2.21,-0.07,0.28,0.19,
4.389,0.20,0.92,-2.21,-0.09,0.28,0.19,
4.391,0.20,0.92,-2.21,-0.11,0.26,0.20,
4.393,0.20,0.92,-2.21,-0.12,0.25,0.21,
4.395,0.20,0.92,-2.21,-0.14,0.24,0.22,
4.397,0.20,0.92,-2.21,-0.15,0.23,0.22,
4.408,-0.10,0.81,-1.64,-0.15,0.23,0.22,
4.408,-0.10,0.81,-1.64,-0.15,0.22,0.24,
4.408,-0.10,0.81,-1.64,-0.16,0.22,0.25,
4.408,-0.10,0.81,-1.64,-0.16,0.21,0.26,
4.408,-0.10,0.81,-1.64,-0.16,0.21,0.28,
4.408,-0.10,0.81,-1.64,-0.16,0.21,0.29,
4.41,-0.22,0.63,-0.74,-0.16,0.21,0.29,
4.41,-0.22,0.63,-0.74,-0.16,0.20,0.31,
4.411,-0.22,0.63,-0.74,-0.16,0.20,0.33,
4.412,-0.22,0.63,-0.74,-0.17,0.19,0.35,
4.414,-0.22,0.63,-0.74,-0.17,0.18,0.37,
4.416,-0.22,0.63,-0.74,-0.18,0.17,0.39,
4.42,-0.35,0.58,-0.04,-0.18,0.17,0.39,
4.42,-0.35,0.58,-0.04,-0.18,0.15,0.41,
4.421,-0.35,0.58,-0.04,-0.19,0.12,0.43,
4.423,-0.35,0.58,-0.04,-0.20,0.09,0.44,
4.425,-0.35,0.58,-0.04,-0.21,0.07,0.45,
4.428,-0.35,0.58,-0.04,-0.21,0.04,0.47,
4.43,-0.18,0.60,0.94,-0.21,0.04,0.47,
4.43,-0.18,0.60,0.94,-0.21,0.02,0.48,
4.431,-0.18,0.60,0.94,-0.21,0.01,0.49,
4.435,-0.18,0.60,0.94,-0.21,-0.00,0.51,
4.436,-0.18,0.60,0.94,-0.20,-0.01,0.52,
4.438,-0.18,0.60,0.94,-0.20,-0.01,0.54,
4.44,-0.13,0.68,2.23,-0.20,-0.01,0.54,
4.44,-0.13,0.68,2.23,-0.18,-0.00,0.57,
4.456,-0.13,0.68,2.23,-0.17,0.00,0.59,
4.456,-0.13,0.68,2.23,-0.16,0.01,0.61,
4.456,-0.13,0.68,2.23,-0.14,0.02,0.63,
4.457,-0.13,0.68,2.23,-0.12,0.02,0.65,
4.457,-0.13,0.87,3.22,-0.12,0.02,0.65,
4.457,-0.13,0.87,3.22,-0.11,0.03,0.67,
4.458,-0.13,0.87,3.22,-0.09,0.03,0.70,
4.458,-0.13,0.87,3.22,-0.08,0.02,0.71,
4.458,-0.13,0.87,3.22,-0.08,0.02,0.72,
4.458,-0.13,0.87,3.22,-0.07,0.02,0.74,
4.463,0.05,0.98,3.58,-0.07,0.02,0.74,
4.464,0.05,0.98,3.58,-0.06,0.01,0.75,
4.464,0.05,0.98,3.58,-0.06,0.00,0.76,
4.464,0.05,0.98,3.58,-0.05,0.00,0.77,
4.465,0.05,0.98,3.58,-0.05,-0.00,0.78,
4.468,0.05,0.98,3.58,-0.05,-0.01,0.78,
4.471,0.25,0.95,3.51,-0.05,-0.01,0.78,
4.471,0.25,0.95,3.51,-0.05,-0.01,0.79,
4.471,0.25,0.95,3.51,-0.05,-0.01,0.79,
4.484,0.25,0.95,3.51,-0.06,-0.01,0.79,
4.485,0.25,0.95,3.51,-0.06,-0.01,0.80,
4.485,0.25,0.95,3.51,-0.06,-0.01,0.80,
4.485,0.45,0.85,3.28,-0.06,-0.01,0.80,
4.485,0.45,0.85,3.28,-0.07,-0.02,0.80,
4.486,0.45,0.85,3.28,-0.08,-0.02,0.80,
4.486,0.45,0.85,3.28,-0.09,-0.04,0.81,
4.486,0.45,0.85,3.28,-0.11,-0.05,0.80,
4.487,0.45,0.85,3.28,-0.12,-0.07,0.80,
4.49,0.66,0.68,2.90,-0.12,-0.07,0.80,
4.491,0.66,0.68,2.90,-0.14,-0.09,0.80,
4.491,0.66,0.68,2.90,-0.17,-0.10,0.79,
4.512,0.66,0.68,2.90,-0.19,-0.12,0.79,
4.513,0.66,0.68,2.90,-0.21,-0.13,0.78,
4.513,0.66,0.68,2.90,-0.24,-0.14,0.76,
4.513,0.92,0.59,2.71,-0.24,-0.14,0.76,
4.513,0.92,0.59,2.71,-0.26,-0.14,0.75,
4.514,0.92,0.59,2.71,-0.28,-0.14,0.74,
4.514,0.92,0.59,2.71,-0.31,-0.14,0.73,
4.514,0.92,0.59,2.71,-0.33,-0.14,0.72,
4.514,0.92,0.59,2.71,-0.36,-0.13,0.71,
4.514,0.95,0.63,2.57,-0.36,-0.13,0.71,
4.515,0.95,0.63,2.57,-0.39,-0.13,0.69,
4.515,0.95,0.63,2.57,-0.43,-0.12,0.68,
4.515,0.95,0.63,2.57,-0.46,-0.12,0.67,
4.515,0.95,0.63,2.57,-0.50,-0.11,0.66,
4.524,0.95,0.63,2.57,-0.54,-0.11,0.65,
4.525,0.92,0.51,2.48,-0.54,-0.11,0.65,
4.525,0.92,0.51,2.48,-0.58,-0.11,0.64,
4.526,0.92,0.51,2.48,-0.63,-0.11,0.63,
4.526,0.92,0.51,2.48,-0.67,-0.10,0.62,
4.558,0.92,0.51,2.48,-0.71,-0.10,0.61,
4.559,0.92,0.51,2.48,-0.75,-0.08,0.60,
4.559,0.92,0.41,2.85,-0.75,-0.08,0.60,
4.559,0.92,0.41,2.85,-0.79,-0.07,0.59,
4.559,0.92,0.41,2.85,-0.83,-0.05,0.58,
4.559,0.92,0.41,2.85,-0.85,-0.03,0.56,
4.559,0.92,0.41,2.85,-0.88,0.00,0.55,
4.56,0.92,0.41,2.85,-0.91,0.04,0.54,
4.56,1.03,0.19,3.73,-0.91,0.04,0.54,
4.56,1.03,0.19,3.73,-0.93,0.07,0.52,
4.56,1.03,0.19,3.73,-0.94,0.11,0.51,
4.56,1.03,0.19,3.73,-0.95,0.15,0.50,
4.56,1.03,0.19,3.73,-0.96,0.19,0.49,
4.56,1.03,0.19,3.73,-0.96,0.23,0.48,
4.561,0.91,-0.14,4.72,-0.96,0.23,0.48,
4.561,0.91,-0.14,4.72,-0.96,0.26,0.47,
4.561,0.91,-0.14,4.72,-0.96,0.30,0.46,
4.561,0.91,-0.14,4.72,-0.95,0.33,0.46,
4.561,0.91,-0.14,4.72,-0.93,0.36,0.45,
4.561,0.91,-0.14,4.72,-0.91,0.39,0.45,
4.561,0.69,-0.52,5.71,-0.91,0.39,0.45,
4.563,0.69,-0.52,5.71,-0.89,0.43,0.45,
4.563,0.69,-0.52,5.71,-0.86,0.46,0.45,
4.564,0.69,-0.52,5.71,-0.82,0.49,0.45,
4.567,0.69,-0.52,5.71,-0.78,0.52,0.45,
4.57,0.69,-0.52,5.71,-0.74,0.55,0.45,
4.573,0.36,-0.84,6.41,-0.74,0.55,0.45,
4.573,0.36,-0.84,6.41,-0.69,0.58,0.46,
4.573,0.36,-0.84,6.41,-0.64,0.60,0.46,
4.573,0.36,-0.84,6.41,-0.56,0.62,0.47,
4.574,0.36,-0.84,6.41,-0.53,0.62,0.48,
4.577,0.36,-0.84,6.41,-0.48,0.63,0.49,
4.579,0.08,-1.15,6.65,-0.48,0.63,0.49,
4.579,0.08,-1.15,6.65,-0.42,0.63,0.49,
4.581,0.08,-1.15,6.65,-0.36,0.64,0.50,
4.583,0.08,-1.15,6.65,-0.31,0.63,0.51,
4.585,0.08,-1.15,6.65,-0.25,0.63,0.51,
4.587,0.08,-1.15,6.65,-0.20,0.62,0.52,
4.589,-0.06,-1.25,6.19,-0.20,0.62,0.52,
4.59,-0.06,-1.25,6.19,-0.14,0.61,0.53,
4.591,-0.06,-1.25,6.19,-0.09,0.59,0.54,
4.593,-0.06,-1.25,6.19,-0.05,0.58,0.55,
4.594,-0.06,-1.25,6.19,-0.01,0.55,0.55,
4.596,-0.06,-1.25,6.19,0.03,0.53,0.56,
4.601,-0.12,-1.34,5.25,0.03,0.53,0.56,
4.602,-0.12,-1.34,5.25,0.07,0.50,0.56,
4.602,-0.12,-1.34,5.25,0.10,0.47,0.57,
4.606,-0.12,-1.34,5.25,0.13,0.44,0.57,
4.606,-0.12,-1.34,5.25,0.15,0.41,0.57,
4.609,-0.12,-1.34,5.25,0.17,0.38,0.57,
4.63,-0.05,-1.32,4.08,0.17,0.38,0.57,
4.63,-0.05,-1.32,4.08,0.19,0.34,0.57,
4.63,-0.05,-1.32,4.08,0.20,0.31,0.57,
4.63,-0.05,-1.32,4.08,0.22,0.28,0.57,
4.63,-0.05,-1.32,4.08,0.23,0.24,0.57,
4.631,-0.05,-1.32,4.08,0.24,0.21,0.57,
4.631,0.05,-1.39,3.13,0.24,0.21,0.57,
4.631,0.05,-1.39,3.13,0.24,0.18,0.57,
4.631,0.05,-1.39,3.13,0.25,0.14,0.56,
4.631,0.05,-1.39,3.13,0.25,0.11,0.56,
4.632,0.05,-1.39,3.13,0.25,0.07,0.55,
4.632,0.05,-1.39,3.13,0.25,0.03,0.55,
4.632,0.19,-1.43,2.55,0.25,0.03,0.55,
4.632,0.19,-1.43,2.55,0.25,-0.00,0.54,
4.633,0.19,-1.43,2.55,0.24,-0.03,0.53,
4.639,0.19,-1.43,2.55,0.24,-0.06,0.53,
4.64,0.19,-1.43,2.55,0.25,-0.08,0.52,
4.64,0.19,-1.43,2.55,0.25,-0.10,0.51,
4.64,0.43,-1.59,2.55,0.25,-0.10,0.51,
4.64,0.43,-1.59,2.55,0.25,-0.11,0.51,
4.641,0.43,-1.59,2.55,0.26,-0.13,0.50,
4.643,0.43,-1.59,2.55,0.26,-0.13,0.49,
4.645,0.43,-1.59,2.55,0.26,-0.14,0.49,
4.647,0.43,-1.59,2.55,0.27,-0.14,0.48,
4.649,0.66,-1.76,2.71,0.27,-0.14,0.48,
4.65,0.66,-1.76,2.71,0.28,-0.14,0.47,
4.651,0.66,-1.76,2.71,0.28,-0.14,0.47,
4.653,0.66,-1.76,2.71,0.29,-0.14,0.46,
4.654,0.66,-1.76,2.71,0.29,-0.13,0.45,
4.656,0.66,-1.76,2.71,0.30,-0.13,0.44,
4.659,0.94,-1.99,2.89,0.30,-0.13,0.44,
4.659,0.94,-1.99,2.89,0.31,-0.12,0.43,
4.661,0.94,-1.99,2.89,0.32,-0.11,0.42,
4.663,0.94,-1.99,2.89,0.33,-0.10,0.41,
4.671,0.94,-1.99,2.89,0.34,-0.09,0.39,
4.671,0.94,-1.99,2.89,0.35,-0.08,0.38,
4.671,1.23,-2.06,2.88,0.35,-0.08,0.38,
4.671,1.23,-2.06,2.88,0.36,-0.06,0.37,
4.672,1.23,-2.06,2.88,0.37,-0.05,0.35,
4.673,1.23,-2.06,2.88,0.39,-0.04,0.34,
4.676,1.23,-2.06,2.88,0.40,-0.03,0.32,
4.677,1.23,-2.06,2.88,0.41,-0.01,0.31,
4.679,1.41,-2.13,2.76,0.41,-0.01,0.31,
4.68,1.41,-2.13,2.76,0.42,-0.00,0.29,
4.683,1.41,-2.13,2.76,0.43,0.01,0.28,
4.683,1.41,-2.13,2.76,0.44,0.02,0.26,
4.687,1.41,-2.13,2.76,0.45,0.03,0.24,
4.687,1.41,-2.13,2.76,0.47,0.04,0.22,
4.689,1.47,-2.09,2.37,0.47,0.04,0.22,
4.689,1.47,-2.09,2.37,0.47,0.05,0.21,
4.691,1.47,-2.09,2.37,0.48,0.07,0.19,
4.692,1.47,-2.09,2.37,0.49,0.08,0.17,
4.694,1.47,-2.09,2.37,0.50,0.09,0.15,
4.697,1.47,-2.09,2.37,0.51,0.10,0.13,
4.699,1.54,-2.17,1.94,0.51,0.10,0.13,
4.699,1.54,-2.17,1.94,0.52,0.11,0.12,
4.701,1.54,-2.17,1.94,0.53,0.12,0.10,
4.702,1.54,-2.17,1.94,0.53,0.13,0.08,
4.704,1.54,-2.17,1.94,0.54,0.13,0.07,
4.707,1.54,-2.17,1.94,0.55,0.14,0.05,
4.709,1.40,-2.12,1.35,0.55,0.14,0.05,
4.709,1.40,-2.12,1.35,0.55,0.14,0.03,
4.711,1.40,-2.12,1.35,0.55,0.14,0.02,
4.712,1.40,-2.12,1.35,0.56,0.13,-0.00,
4.715,1.40,-2.12,1.35,0.56,0.13,-0.02,
4.717,1.40,-2.12,1.35,0.56,0.12,-0.03,
4.719,1.24,-2.13,0.80,0.56,0.12,-0.03,
4.719,1.24,-2.13,0.80,0.56,0.12,-0.04,
4.721,1.24,-2.13,0.80,0.56,0.11,-0.06,
4.723,1.24,-2.13,0.80,0.56,0.10,-0.07,
4.725,1.24,-2.13,0.80,0.56,0.10,-0.08,
4.726,1.24,-2.13,0.80,0.55,0.09,-0.10,
4.729,1.12,-2.09,0.21,0.55,0.09,-0.10,
4.73,1.12,-2.09,0.21,0.55,0.08,-0.11,
4.731,1.12,-2.09,0.21,0.54,0.07,-0.12,
4.733,1.12,-2.09,0.21,0.53,0.06,-0.14,
4.735,1.12,-2.09,0.21,0.52,0.05,-0.15,
4.737,1.12,-2.09,0.21,0.51,0.04,-0.16,
4.739,1.10,-2.11,-0.32,0.51,0.04,-0.16,
4.739,1.10,-2.11,-0.32,0.50,0.04,-0.18,
4.741,1.10,-2.11,-0.32,0.48,0.03,-0.19,
4.743,1.10,-2.11,-0.32,0.47,0.03,-0.20,
4.745,1.10,-2.11,-0.32,0.46,0.02,-0.22,
4.747,1.10,-2.11,-0.32,0.44,0.02,-0.23,
4.75,1.06,-2.08,-0.71,0.44,0.02,-0.23,
4.751,1.06,-2.08,-0.71,0.43,0.02,-0.24,
4.752,1.06,-2.08,-0.71,0.42,0.02,-0.26,
4.753,1.06,-2.08,-0.71,0.41,0.02,-0.27,
4.755,1.06,-2.08,-0.71,0.39,0.02,-0.29,
4.757,1.06,-2.08,-0.71,0.38,0.02,-0.30,
4.759,1.10,-2.14,-0.90,0.38,0.02,-0.30,
4.76,1.10,-2.14,-0.90,0.37,0.02,-0.32,
4.761,1.10,-2.14,-0.90,0.36,0.02,-0.33,
4.763,1.10,-2.14,-0.90,0.34,0.02,-0.34,
4.765,1.10,-2.14,-0.90,0.33,0.02,-0.35,
4.768,1.10,-2.14,-0.90,0.32,0.01,-0.36,
4.77,0.99,-2.11,-1.11,0.32,0.01,-0.36,
4.77,0.99,-2.11,-1.11,0.30,0.02,-0.37,
4.773,0.99,-2.11,-1.11,0.28,0.01,-0.40,
4.774,0.99,-2.11,-1.11,0.28,0.01,-0.40,
4.799,0.99,-2.11,-1.11,0.27,0.01,-0.41,
4.8,0.99,-2.11,-1.11,0.26,0.01,-0.42,
4.8,1.03,-2.14,-1.25,0.26,0.01,-0.42,
4.801,1.03,-2.14,-1.25,0.25,0.01,-0.44,
4.801,1.03,-2.14,-1.25,0.24,0.01,-0.45,
4.801,1.03,-2.14,-1.25,0.23,0.01,-0.46,
4.802,1.03,-2.14,-1.25,0.22,0.02,-0.47,
4.802,1.03,-2.14,-1.25,0.21,0.02,-0.48,
4.803,0.89,-2.11,-1.33,0.21,0.02,-0.48,
4.803,0.89,-2.11,-1.33,0.21,0.02,-0.49,
4.803,0.89,-2.11,-1.33,0.20,0.01,-0.51,
4.804,0.89,-2.11,-1.33,0.20,0.01,-0.52,
4.804,0.89,-2.11,-1.33,0.20,0.01,-0.53,
4.805,0.89,-2.11,-1.33,0.20,0.01,-0.54,
4.805,0.78,-2.12,-1.33,0.20,0.01,-0.54,
4.806,0.78,-2.12,-1.33,0.20,0.01,-0.55,
4.806,0.78,-2.12,-1.33,0.20,0.00,-0.56,
4.806,0.78,-2.12,-1.33,0.20,-0.01,-0.57,
4.807,0.78,-2.12,-1.33,0.20,-0.01,-0.57,
4.807,0.78,-2.12,-1.33,0.20,-0.03,-0.58,
4.815,0.59,-2.07,-1.37,0.20,-0.03,-0.58,
4.816,0.59,-2.07,-1.37,0.20,-0.04,-0.59,
4.816,0.59,-2.07,-1.37,0.20,-0.06,-0.59,
4.817,0.59,-2.07,-1.37,0.20,-0.08,-0.60,
4.817,0.59,-2.07,-1.37,0.20,-0.10,-0.61,
4.818,0.59,-2.07,-1.37,0.20,-0.12,-0.61,
4.82,0.51,-2.03,-1.39,0.20,-0.12,-0.61,
4.82,0.51,-2.03,-1.39,0.20,-0.13,-0.62,
4.821,0.51,-2.03,-1.39,0.20,-0.14,-0.62,
4.823,0.51,-2.03,-1.39,0.20,-0.15,-0.62,
4.825,0.51,-2.03,-1.39,0.20,-0.16,-0.62,
4.827,0.51,-2.03,-1.39,0.19,-0.16,-0.63,
4.829,0.39,-2.00,-1.49,0.19,-0.16,-0.63,
4.83,0.39,-2.00,-1.49,0.19,-0.16,-0.62,
4.831,0.39,-2.00,-1.49,0.19,-0.16,-0.62,
4.833,0.39,-2.00,-1.49,0.19,-0.16,-0.62,
4.835,0.39,-2.00,-1.49,0.18,-0.16,-0.62,
4.837,0.39,-2.00,-1.49,0.18,-0.17,-0.62,
4.839,0.36,-1.98,-1.52,0.18,-0.17,-0.62,
4.839,0.36,-1.98,-1.52,0.17,-0.17,-0.62,
4.841,0.36,-1.98,-1.52,0.17,-0.18,-0.62,
4.843,0.36,-1.98,-1.52,0.16,-0.18,-0.62,
4.845,0.36,-1.98,-1.52,0.15,-0.18,-0.62,
4.857,0.36,-1.98,-1.52,0.15,-0.19,-0.62,
4.858,0.38,-1.80,-1.62,0.15,-0.19,-0.62,
4.858,0.38,-1.80,-1.62,0.14,-0.19,-0.63,
4.859,0.38,-1.80,-1.62,0.13,-0.20,-0.63,
4.86,0.38,-1.80,-1.62,0.12,-0.20,-0.63,
4.86,0.38,-1.80,-1.62,0.11,-0.20,-0.63,
4.861,0.38,-1.80,-1.62,0.10,-0.20,-0.63,
4.862,0.42,-1.76,-1.68,0.10,-0.20,-0.63,
4.862,0.42,-1.76,-1.68,0.09,-0.20,-0.64,
4.888,0.42,-1.76,-1.68,0.09,-0.20,-0.64,
4.889,0.42,-1.76,-1.68,0.08,-0.20,-0.64,
4.889,0.42,-1.76,-1.68,0.08,-0.20,-0.64,
4.89,0.42,-1.76,-1.68,0.07,-0.20,-0.64,
4.89,0.36,-1.66,-1.63,0.07,-0.20,-0.64,
4.89,0.36,-1.66,-1.63,0.07,-0.20,-0.63,
4.891,0.36,-1.66,-1.63,0.07,-0.21,-0.63,
4.891,0.36,-1.66,-1.63,0.06,-0.21,-0.63,
4.891,0.36,-1.66,-1.63,0.06,-0.22,-0.63,
4.892,0.36,-1.66,-1.63,0.06,-0.23,-0.63,
4.892,0.40,-1.60,-1.34,0.06,-0.23,-0.63,
4.892,0.40,-1.60,-1.34,0.07,-0.24,-0.63,
4.893,0.40,-1.60,-1.34,0.07,-0.25,-0.63,
4.893,0.40,-1.60,-1.34,0.08,-0.25,-0.64,
4.894,0.40,-1.60,-1.34,0.09,-0.26,-0.64,
4.894,0.40,-1.60,-1.34,0.11,-0.26,-0.64,
4.894,0.49,-1.52,-0.87,0.11,-0.26,-0.64,
4.895,0.49,-1.52,-0.87,0.12,-0.25,-0.64,
4.895,0.49,-1.52,-0.87,0.14,-0.24,-0.64,
4.895,0.49,-1.52,-0.87,0.16,-0.23,-0.64,
4.896,0.49,-1.52,-0.87,0.18,-0.22,-0.65,
4.898,0.49,-1.52,-0.87,0.20,-0.21,-0.64,
4.903,0.58,-1.43,-0.60,0.20,-0.21,-0.64,
4.904,0.58,-1.43,-0.60,0.22,-0.21,-0.65,
4.905,0.58,-1.43,-0.60,0.24,-0.20,-0.65,
4.905,0.58,-1.43,-0.60,0.25,-0.20,-0.65,
4.906,0.58,-1.43,-0.60,0.27,-0.19,-0.65,
4.908,0.58,-1.43,-0.60,0.29,-0.19,-0.66,
4.91,0.64,-1.20,-0.77,0.29,-0.19,-0.66,
4.911,0.64,-1.20,-0.77,0.30,-0.18,-0.67,
4.912,0.64,-1.20,-0.77,0.31,-0.18,-0.67,
4.916,0.64,-1.20,-0.77,0.32,-0.17,-0.67,
4.916,0.64,-1.20,-0.77,0.33,-0.16,-0.68,
4.92,0.64,-1.20,-0.77,0.34,-0.16,-0.68,
4.922,0.44,-0.86,-1.14,0.34,-0.16,-0.68,
4.923,0.44,-0.86,-1.14,0.35,-0.15,-0.68,
4.923,0.44,-0.86,-1.14,0.35,-0.15,-0.68,
4.926,0.44,-0.86,-1.14,0.35,-0.14,-0.68,
4.926,0.44,-0.86,-1.14,0.35,-0.14,-0.68,
4.927,0.44,-0.86,-1.14,0.34,-0.14,-0.68,
4.941,0.24,-0.62,-1.69,0.34,-0.14,-0.68,
4.942,0.24,-0.62,-1.69,0.33,-0.13,-0.68,
4.942,0.24,-0.62,-1.69,0.32,-0.13,-0.68,
4.942,0.24,-0.62,-1.69,0.31,-0.12,-0.68,
4.942,0.24,-0.62,-1.69,0.29,-0.12,-0.68,
4.942,0.24,-0.62,-1.69,0.28,-0.11,-0.67,
4.943,0.10,-0.37,-2.11,0.28,-0.11,-0.67,
4.943,0.10,-0.37,-2.11,0.26,-0.10,-0.67,
4.963,0.10,-0.37,-2.11,0.25,-0.09,-0.67,
4.963,0.10,-0.37,-2.11,0.23,-0.08,-0.67,
4.964,0.10,-0.37,-2.11,0.21,-0.07,-0.66,
4.964,0.10,-0.37,-2.11,0.19,-0.05,-0.67,
4.965,-0.04,-0.12,-2.23,0.19,-0.05,-0.67,
4.965,-0.04,-0.12,-2.23,0.18,-0.05,-0.66,
4.965,-0.04,-0.12,-2.23,0.16,-0.03,-0.66,
4.966,-0.04,-0.12,-2.23,0.14,-0.02,-0.66,
4.966,-0.04,-0.12,-2.23,0.13,-0.01,-0.66,
4.966,-0.04,-0.12,-2.23,0.12,-0.00,-0.66,
4.966,-0.22,0.12,-2.08,0.12,-0.00,-0.66,
4.967,-0.22,0.12,-2.08,0.10,0.01,-0.65,
4.967,-0.22,0.12,-2.08,0.09,0.02,-0.65,
4.967,-0.22,0.12,-2.08,0.08,0.03,-0.64,
4.967,-0.22,0.12,-2.08,0.07,0.03,-0.64,
4.968,-0.22,0.12,-2.08,0.06,0.04,-0.64,
4.972,-0.35,0.31,-1.80,0.06,0.04,-0.64,
4.972,-0.35,0.31,-1.80,0.05,0.05,-0.63,
4.973,-0.35,0.31,-1.80,0.04,0.05,-0.63,
4.973,-0.35,0.31,-1.80,0.03,0.05,-0.62,
4.975,-0.35,0.31,-1.80,0.03,0.06,-0.62,
4.977,-0.35,0.31,-1.80,0.02,0.06,-0.61,
4.979,-0.58,0.44,-1.51,0.02,0.06,-0.61,
4.98,-0.58,0.44,-1.51,0.01,0.06,-0.60,
4.982,-0.58,0.44,-1.51,0.01,0.07,-0.59,
4.983,-0.58,0.44,-1.51,-0.00,0.07,-0.58,
4.985,-0.58,0.44,-1.51,-0.01,0.07,-0.56,
4.987,-0.58,0.44,-1.51,-0.01,0.07,-0.55,
4.989,-0.88,0.45,-1.26,-0.01,0.07,-0.55,
4.989,-0.88,0.45,-1.26,-0.02,0.07,-0.54,
4.991,-0.88,0.45,-1.26,-0.03,0.07,-0.52,
4.993,-0.88,0.45,-1.26,-0.03,0.07,-0.50,
4.995,-0.88,0.45,-1.26,-0.04,0.07,-0.49,
4.998,-0.88,0.45,-1.26,-0.05,0.06,-0.47,
4.999,-1.13,0.55,-1.01,-0.05,0.06,-0.47,
5.0,-1.13,0.55,-1.01,-0.06,0.06,-0.45,
5.001,-1.13,0.55,-1.01,-0.06,0.05,-0.44,
5.003,-1.13,0.55,-1.01,-0.07,0.04,-0.42,
5.005,-1.13,0.55,-1.01,-0.08,0.04,-0.40,
5.007,-1.13,0.55,-1.01,-0.08,0.04,-0.39,
5.009,-1.19,0.60,-0.55,-0.08,0.04,-0.39,
5.009,-1.19,0.60,-0.55,-0.08,0.03,-0.37,
5.011,-1.19,0.60,-0.55,-0.08,0.03,-0.36,
5.013,-1.19,0.60,-0.55,-0.08,0.03,-0.34,
5.015,-1.19,0.60,-0.55,-0.08,0.02,-0.32,
5.017,-1.19,0.60,-0.55,-0.07,0.02,-0.31,
5.019,-1.17,0.71,0.06,-0.07,0.02,-0.31,
5.019,-1.17,0.71,0.06,-0.07,0.02,-0.29,
5.021,-1.17,0.71,0.06,-0.06,0.02,-0.28,
5.023,-1.17,0.71,0.06,-0.05,0.01,-0.27,
5.025,-1.17,0.71,0.06,-0.05,0.01,-0.25,
5.027,-1.17,0.71,0.06,-0.04,0.01,-0.24,
5.029,-1.05,0.86,0.58,-0.04,0.01,-0.24,
5.03,-1.05,0.86,0.58,-0.03,0.01,-0.23,
5.034,-1.05,0.86,0.58,-0.01,0.01,-0.22,
5.035,-1.05,0.86,0.58,-0.01,0.01,-0.21,
5.036,-1.05,0.86,0.58,-0.00,0.02,-0.20,
5.037,-1.05,0.86,0.58,0.01,0.02,-0.19,
